t,acc_x,acc_y,acc_z,gyro_x,gyro_y,gyro_z,mag_x,mag_y,mag_z,mag_x_uncalibrated,mag_y_uncalibrated,mag_z_uncalibrated,rot_alpha,rot_beta,rot_gamma
0.08575129199999765,-0.008459797129034996,-0.003552656853571534,0.0037345506716519594,-0.0087432861328125,-0.0060882568359375,-0.9945068359375,18.34009552001953,7.084280014038086,-46.57904052734375,47.52227783203125,-19.928253173828125,69.22378540039062,0.31311995070782395,0.008226981876773586,-0.0046212128085253296
0.14908333399998241,-0.008774583227932453,-0.006272543221712112,0.004007258452475071,-0.008544921875,-0.0062255859375,-0.9937286376953125,18.360851287841797,7.103357315063477,-46.853179931640625,47.55177307128906,-20.327423095703125,69.90988159179688,0.3127325443455361,0.008205426594144754,-0.004700356919834716
0.21832908400000406,-0.008774583227932453,-0.006272543221712112,0.004007258452475071,-0.009002685546875,-0.0062255859375,-0.993621826171875,18.409984588623047,6.996686935424805,-46.51704406738281,47.61897277832031,-20.204330444335938,69.55928039550781,0.31275411366433126,0.008170152809031736,-0.004752385821304553
0.28372983399998475,-0.009336776100099087,-0.005334311630576849,0.0046456181444227695,-0.009002685546875,-0.0062255859375,-0.993621826171875,18.369346618652344,6.8829345703125,-46.54393768310547,47.68733215332031,-20.06201171875,69.47698974609375,0.3131007244667575,0.008144575062361712,-0.004793081197407822
0.3343030419999877,-0.01002333965152502,-0.0037907434161752462,0.002808303339406848,-0.0091552734375,-0.0057220458984375,-0.99505615234375,18.41811752319336,6.909135818481445,-46.71717071533203,47.509918212890625,-20.095748901367188,69.82302856445312,0.3132589809713301,0.008111822377582428,-0.004812652040036843
0.3992834999999957,-0.01002333965152502,-0.0037907434161752462,0.002808303339406848,-0.0091552734375,-0.0057220458984375,-0.99505615234375,18.304706573486328,7.187019348144531,-46.75414276123047,47.5322265625,-20.282333374023438,69.61708068847656,0.3130677194395027,0.00809594267750558,-0.004826345692951535
0.46737558399999557,-0.009214270859956741,-0.0051838429644703865,0.004656270612031221,-0.0088653564453125,-0.0061187744140625,-0.993560791015625,18.440937042236328,6.941036224365234,-46.54161834716797,47.4632568359375,-20.019821166992188,69.98139953613281,0.31326606834288695,0.008026219039751453,-0.0048528072826376735
0.521570166999993,-0.009214270859956741,-0.0051838429644703865,0.004656270612031221,-0.008880615234375,-0.005340576171875,-0.9945220947265625,18.33551025390625,7.013242721557617,-46.73060607910156,47.5843505859375,-20.09271240234375,69.46098327636719,0.3133281702408977,0.008032356997859728,-0.004892578013749712
0.5692151669999816,-0.007364439312368631,-0.003817641409114003,0.0019118833588436246,-0.008880615234375,-0.005340576171875,-0.9945220947265625,18.324302673339844,7.041997909545898,-46.684043884277344,47.52931213378906,-20.325698852539062,69.76126098632812,0.3133653181594195,0.008023696901601101,-0.0048984149200298616
0.6343672499999968,-0.007452323567122221,-0.006788664031773806,0.0041364217177033424,-0.0086822509765625,-0.0059814453125,-0.99420166015625,18.40569305419922,6.997461318969727,-46.55686950683594,47.59269714355469,-20.061325073242188,69.68724060058594,0.3134151452156398,0.00800457204181059,-0.004903682105995869
0.7001374169999792,-0.007452323567122221,-0.006788664031773806,0.0041364217177033424,-0.0086822509765625,-0.0059814453125,-0.99420166015625,18.340999603271484,6.892513275146484,-46.81672668457031,47.70420837402344,-20.031600952148438,69.56672668457031,0.3135373318891998,0.007987469546469382,-0.004918144557562154
0.769707708999988,-0.00942173134535551,-0.005824865773320198,0.004366252571344376,-0.008880615234375,-0.006103515625,-0.994537353515625,18.358749389648438,7.002687454223633,-46.373634338378906,47.55375671386719,-20.208724975585938,69.986083984375,0.3135597392712093,0.007990554906143246,-0.004954964537305072
0.8289116249999893,-0.00942173134535551,-0.005824865773320198,0.004366252571344376,-0.0087738037109375,-0.0056915283203125,-0.9942474365234375,18.553199768066406,6.930742263793945,-46.446388244628906,47.76875305175781,-20.152130126953125,69.48774719238281,0.31349952356480126,0.00799058869402194,-0.004965419412748437
0.8843287499999803,-0.009041964076459408,-0.003625893732532859,0.005898901727050543,-0.0087738037109375,-0.0056915283203125,-0.9942474365234375,18.521556854248047,6.99266242980957,-46.61046600341797,47.55787658691406,-20.01544189453125,69.4818115234375,0.31353026486180535,0.007956988863416972,-0.004953029012568956
0.937528833999977,-0.009340238757431507,-0.005044293589890003,0.002120675053447485,-0.0092926025390625,-0.006011962890625,-0.99334716796875,18.3714599609375,6.970573425292969,-46.617637634277344,47.46183776855469,-20.039047241210938,69.68260192871094,0.3135203024691187,0.00793968408908714,-0.004938821217272749
0.9999483750000024,-0.009340238757431507,-0.005044293589890003,0.002120675053447485,-0.0092926025390625,-0.006011962890625,-0.99334716796875,18.350357055664062,7.027767181396484,-46.40155792236328,47.70106506347656,-20.145401000976562,69.54536437988281,0.31362733010081423,0.007941183419208327,-0.004950171896804304
1.0695008339999958,-0.008994027972221375,-0.005368399899452925,0.004517520312219858,-0.0088653564453125,-0.0061798095703125,-0.99444580078125,18.426353454589844,6.916269302368164,-46.55426788330078,47.44462585449219,-20.052154541015625,69.47813415527344,0.31376253141891886,0.007850320766914177,-0.004977531172267428
1.1236248749999902,-0.008994027972221375,-0.005368399899452925,0.004517520312219858,-0.009307861328125,-0.00592041015625,-0.9936370849609375,18.328327178955078,7.011537551879883,-46.516624450683594,47.60331726074219,-20.07659912109375,69.49066162109375,0.3138002020821173,0.007833065875763727,-0.004958730955315506
1.1706524169999852,-0.007708253338932991,-0.006203567609190941,0.005302886478602886,-0.009307861328125,-0.00592041015625,-0.9936370849609375,18.313812255859375,7.008148193359375,-46.59375762939453,47.56059265136719,-20.218185424804688,69.67909240722656,0.3136335756837936,0.007817795108476768,-0.004977084419627115
1.2384883339999817,-0.007732488214969635,-0.00771837355569005,0.005103415343910456,-0.00885009765625,-0.0072479248046875,-0.9935302734375,18.392200469970703,7.165872573852539,-46.683143615722656,47.583892822265625,-19.948776245117188,69.57180786132812,0.31353249252221455,0.007830690625091325,-0.004981988685702869
1.2994532919999813,-0.007732488214969635,-0.00771837355569005,0.005103415343910456,-0.00885009765625,-0.0072479248046875,-0.9935302734375,18.320537567138672,7.236185073852539,-46.60601043701172,47.522705078125,-20.174652099609375,69.75918579101562,0.3133913063232701,0.007768456026559091,-0.005012502751592258
1.349769374999994,-0.008770854212343693,-0.0043718451634049416,0.005440305452793837,-0.0091094970703125,-0.00592041015625,-0.994232177734375,18.49814224243164,6.97874641418457,-46.72419738769531,47.39903259277344,-20.05859375,69.59564208984375,0.31343442645005015,0.007738291428437624,-0.005075431428802633
1.4257141249999847,-0.008770854212343693,-0.0043718451634049416,0.005440305452793837,-0.0086822509765625,-0.0059356689453125,-0.9932403564453125,18.521957397460938,6.947061538696289,-46.501197814941406,47.60186767578125,-20.024276733398438,69.69943237304688,0.3134133249568074,0.007723301381870866,-0.005077721069878971
1.48611116699999,-0.008048338815569878,-0.007051517721265554,0.005228051450103521,-0.0086822509765625,-0.0059356689453125,-0.9932403564453125,18.556720733642578,6.9730224609375,-46.590179443359375,47.51795959472656,-20.159561157226562,69.59806823730469,0.31338269031515875,0.007736457170545833,-0.005176687151319089
1.5375032089999934,-0.006976150441914797,-0.0041433461010456085,0.00276169809512794,-0.0095367431640625,-0.006103515625,-0.993560791015625,18.535354614257812,6.910673141479492,-46.588287353515625,47.33946228027344,-20.232040405273438,70.05876159667969,0.31350700371100676,0.007727285382543008,-0.005196118084675736
1.6004997499999831,-0.006976150441914797,-0.0041433461010456085,0.00276169809512794,-0.0095367431640625,-0.006103515625,-0.993560791015625,18.504878997802734,6.961513519287109,-46.3946533203125,47.557769775390625,-20.22320556640625,69.49440002441406,0.3136160732037868,0.007748052093757217,-0.005219136869214032
1.674307166999995,-0.007336475886404514,-0.005193963181227446,0.005385976750403643,-0.0089569091796875,-0.0055084228515625,-0.993804931640625,18.585472106933594,6.8693695068359375,-46.561195373535156,47.57221984863281,-20.0787353515625,69.54951477050781,0.3136188358740209,0.007748734298059173,-0.0053191594986752066
1.7330881249999948,-0.007336475886404514,-0.005193963181227446,0.005385976750403643,-0.008392333984375,-0.005401611328125,-0.9946746826171875,18.461708068847656,7.0292510986328125,-46.59986114501953,47.63362121582031,-20.158065795898438,69.505126953125,0.31379555115554325,0.007775231168709454,-0.00538236092620689
1.7744542089999982,-0.008832906372845173,-0.007022489327937365,0.002630137838423252,-0.008392333984375,-0.005401611328125,-0.9946746826171875,18.48546600341797,6.9581298828125,-46.80205535888672,47.54521179199219,-20.050949096679688,69.66477966308594,0.3138279355724194,0.007769093372576557,-0.005380284024596656
1.8280900839999958,-0.008832906372845173,-0.007022489327937365,0.002630137838423252,-0.0081024169921875,-0.0055084228515625,-0.993438720703125,18.394142150878906,7.015829086303711,-46.38184356689453,47.566925048828125,-20.259628295898438,69.70121765136719,0.31395487391356186,0.007765871915658238,-0.005390845479504189
1.8745542089999958,-0.01074026245623827,-0.005096757784485817,0.0036389431916177273,-0.0081024169921875,-0.0055084228515625,-0.993438720703125,18.54534912109375,6.957338333129883,-46.53483581542969,47.51960754394531,-20.116226196289062,69.58506774902344,0.31402297767538423,0.0077216024591464415,-0.005391594342189193
1.9287647919999813,-0.01074026245623827,-0.005096757784485817,0.0036389431916177273,-0.008575439453125,-0.0058135986328125,-0.993133544921875,18.439186096191406,7.044563293457031,-46.749671936035156,47.57685852050781,-20.266372680664062,69.3375244140625,0.3141824003529894,0.00770341212473319,-0.005374621488060056
1.977373708999977,-0.007192665245383978,-0.006689327768981457,0.003428287338465452,-0.008575439453125,-0.0058135986328125,-0.993133544921875,18.550750732421875,6.881160736083984,-46.655189514160156,47.512420654296875,-20.162063598632812,69.09928894042969,0.3143728289071881,0.007674330587573365,-0.005377032814898376
2.0394822920000024,-0.008251538500189781,-0.005898635368794203,0.0027632960118353367,-0.0086669921875,-0.006103515625,-0.9931640625,18.513389587402344,7.102716445922852,-46.65287780761719,47.65171813964844,-20.217788696289062,69.44938659667969,0.31439060164141547,0.0076991074203500405,-0.005371184668760406
2.1003706249999823,-0.008251538500189781,-0.005898635368794203,0.0027632960118353367,-0.0086669921875,-0.006103515625,-0.9931640625,18.51806640625,7.036760330200195,-46.801734924316406,47.587249755859375,-20.180923461914062,69.2373046875,0.31457063470715446,0.0076721386958251755,-0.005389262271491885
2.1821749169999975,-0.006150037981569767,-0.0036605149507522583,0.004503138829022646,-0.0084075927734375,-0.0051116943359375,-0.9932098388671875,18.479976654052734,6.929157257080078,-46.81120300292969,47.4727783203125,-20.269927978515625,69.1595458984375,0.31453322108894766,0.007671372640681122,-0.00537527632603136
2.240038499999997,-0.008887501433491707,-0.005440039094537497,0.0025659557431936264,-0.0081634521484375,-0.0050201416015625,-0.9938201904296875,18.453567504882812,7.033824920654297,-46.563232421875,47.47105407714844,-19.956100463867188,69.57121276855469,0.31462824746606244,0.007683825468713532,-0.005368466993011666
2.3002699589999906,-0.008887501433491707,-0.005440039094537497,0.0025659557431936264,-0.0081634521484375,-0.0050201416015625,-0.9938201904296875,18.450881958007812,7.005138397216797,-46.581520080566406,47.439697265625,-20.135665893554688,69.24197387695312,0.31451649696681544,0.007678020938710314,-0.0054032598880567944
2.3799528749999865,-0.009197226725518703,-0.0065074339509010315,0.0046570696868002415,-0.0089263916015625,-0.0051727294921875,-0.9936065673828125,18.45447540283203,7.062492370605469,-46.741943359375,47.58880615234375,-20.029266357421875,69.48626708984375,0.3143514227885362,0.0076658299166751185,-0.005404290473742119
2.4445607920000043,-0.008361526764929295,-0.0032860743813216686,0.0034053840208798647,-0.008331298828125,-0.005706787109375,-0.9939727783203125,18.198497772216797,7.038421630859375,-46.655799865722656,47.45648193359375,-20.18353271484375,69.94660949707031,0.31423890700584456,0.007700142054860808,-0.005366967030044887
2.5000308340000004,-0.008361526764929295,-0.0032860743813216686,0.0034053840208798647,-0.008331298828125,-0.005706787109375,-0.9939727783203125,18.45948028564453,6.996334075927734,-46.69939422607422,47.51800537109375,-20.22119140625,69.24676513671875,0.31430620464418446,0.007735264606690029,-0.005390799589143279
2.5674539589999767,-0.008370847441256046,-0.005318865180015564,0.005362807307392359,-0.0094451904296875,-0.005706787109375,-0.9933929443359375,18.442974090576172,6.908079147338867,-46.68363952636719,47.51759338378906,-20.13775634765625,69.83259582519531,0.3143660627315043,0.007759803176872038,-0.005360556595130715
2.6174134169999945,-0.008370847441256046,-0.005318865180015564,0.005362807307392359,-0.0094451904296875,-0.005706787109375,-0.9933929443359375,18.417476654052734,6.831945419311523,-46.54950714111328,47.55726623535156,-20.064178466796875,69.60467529296875,0.3145440515904555,0.00775978002528098,-0.005333531878189445
2.685928166999986,-0.00939003936946392,-0.004092745948582888,0.004569718148559332,-0.0089569091796875,-0.0059814453125,-0.9939422607421875,18.419391632080078,6.825416564941406,-46.533470153808594,47.50910949707031,-19.993728637695312,69.15252685546875,0.314739804215721,0.007730368874175912,-0.005334843754065265
2.7516524589999847,-0.008272310718894005,-0.004029362928122282,0.005710882600396872,-0.0088653564453125,-0.00579833984375,-0.9940948486328125,18.420177459716797,6.981746673583984,-46.62330627441406,47.4715576171875,-20.226593017578125,70.13755798339844,0.3146303613923797,0.0077329042092790885,-0.005311494285238321
2.7999612499999955,-0.008272310718894005,-0.004029362928122282,0.005710882600396872,-0.0088653564453125,-0.00579833984375,-0.9940948486328125,18.498943328857422,6.824695587158203,-46.560035705566406,47.58306884765625,-20.231475830078125,69.56254577636719,0.31488216066162206,0.0077138268444269945,-0.0053078196189734195
2.850971874999999,-0.008991897106170654,-0.0034120420459657907,0.003780889790505171,-0.0077362060546875,-0.0053558349609375,-0.9934539794921875,18.459735870361328,6.851263046264648,-46.47050476074219,47.61395263671875,-20.031005859375,69.9896240234375,0.31508166930747544,0.007743772719146273,-0.005304427674117373
2.917647958999993,-0.008991897106170654,-0.0034120420459657907,0.003780889790505171,-0.0077362060546875,-0.0053558349609375,-0.9934539794921875,18.300495147705078,6.921916961669922,-46.714752197265625,47.543426513671875,-20.480224609375,69.99789428710938,0.315127404582615,0.007787457865970326,-0.0053003433137903296
2.986446791999981,-0.008349009789526463,-0.0021291973534971476,0.002926813904196024,-0.008758544921875,-0.0067138671875,-0.9939727783203125,18.426700592041016,6.8443145751953125,-46.833412170410156,47.64591979980469,-20.239974975585938,69.62294006347656,0.3156022656259995,0.007803317481207312,-0.005406722531311845
3.0510807919999934,-0.006944192573428154,-0.0060357884503901005,0.005053347907960415,-0.00909423828125,-0.0054473876953125,-0.9945220947265625,18.446544647216797,6.881887435913086,-46.5528564453125,47.55810546875,-20.294021606445312,69.8773193359375,0.31581967924505777,0.007801106575591253,-0.005413332076717204
3.1193859999999916,-0.006944192573428154,-0.0060357884503901005,0.005053347907960415,-0.00909423828125,-0.0054473876953125,-0.9945220947265625,18.491809844970703,6.784082412719727,-46.7359619140625,47.71467590332031,-20.195419311523438,69.21905517578125,0.31620524581170173,0.007782203219572281,-0.005444782082810014
3.1866702920000023,-0.008042213506996632,-0.006216616835445166,0.0041223070584237576,-0.0096893310546875,-0.0059661865234375,-0.994354248046875,18.53546142578125,6.74812126159668,-46.690513610839844,47.620361328125,-20.285507202148438,69.33383178710938,0.31692289452833206,0.007816090460743372,-0.005466255402326195
3.237428499999993,-0.008042213506996632,-0.006216616835445166,0.0041223070584237576,-0.009124755859375,-0.0061187744140625,-0.994049072265625,18.416675567626953,6.928838729858398,-46.63078308105469,47.43965148925781,-20.04022216796875,70.03773498535156,0.3170751501206073,0.007816215204444631,-0.005452334945847795
3.3005361249999794,-0.010157562792301178,-0.00657694274559617,0.002410160843282938,-0.009124755859375,-0.0061187744140625,-0.994049072265625,18.530109405517578,6.858346939086914,-46.70381164550781,47.64875793457031,-20.23663330078125,69.99472045898438,0.3171286773506066,0.007831402925549395,-0.005499015429570562
3.367768874999996,-0.00809334684163332,-0.004406199790537357,0.005559614859521389,-0.0084686279296875,-0.005615234375,-0.9935760498046875,18.425670623779297,6.841743469238281,-46.52594757080078,47.470855712890625,-20.15423583984375,70.05296325683594,0.3172201815089228,0.007840018077404658,-0.005516196584000866
3.4172166249999805,-0.00809334684163332,-0.004406199790537357,0.005559614859521389,-0.0084686279296875,-0.005615234375,-0.9935760498046875,18.486557006835938,6.910945892333984,-46.56719970703125,47.65281677246094,-20.26776123046875,69.70967102050781,0.3173500904167399,0.007880842994668498,-0.005519775931401682
3.4867706249999912,-0.010982876643538475,-0.002275937469676137,0.00571860559284687,-0.008453369140625,-0.006103515625,-0.9942474365234375,18.525726318359375,6.793132781982422,-46.65125274658203,47.672882080078125,-20.31658935546875,69.83673095703125,0.31770982135230735,0.007890393147448459,-0.005557341650248153
3.5392814169999838,-0.010982876643538475,-0.002275937469676137,0.00571860559284687,-0.0087432861328125,-0.0059967041015625,-0.9940338134765625,18.389671325683594,6.875913619995117,-46.51649475097656,47.55418395996094,-20.1397705078125,69.89558410644531,0.31788007616529107,0.007879909787779513,-0.005578517538153269
3.6009357920000014,-0.008142348378896713,-0.008547681383788586,0.0062368568032979965,-0.0087432861328125,-0.0059967041015625,-0.9940338134765625,18.435882568359375,6.854516983032227,-46.65575408935547,47.59893798828125,-20.284881591796875,69.888916015625,0.31800632878092877,0.007919785682302555,-0.005592792215958977
3.6697965839999824,-0.008364723064005375,-0.0049494849517941475,0.005004612263292074,-0.007904052734375,-0.0064697265625,-0.992767333984375,18.48006820678711,6.808752059936523,-46.462318420410156,47.44183349609375,-20.289398193359375,70.13386535644531,0.31820366396710686,0.00792191994969395,-0.005608203430232528
3.739181083999995,-0.008364723064005375,-0.0049494849517941475,0.005004612263292074,-0.0088043212890625,-0.006103515625,-0.993896484375,18.455307006835938,6.926319122314453,-46.505516052246094,47.61222839355469,-20.376876831054688,70.21427917480469,0.31819699906110904,0.007943865466358006,-0.005599493360503183
3.7931137500000034,-0.008717857301235199,-0.006864297669380903,0.0031590417493134737,-0.0088043212890625,-0.006103515625,-0.993896484375,18.645645141601562,6.636665344238281,-46.57194519042969,47.708282470703125,-20.438980102539062,69.78176879882812,0.318470484547452,0.007957471536529053,-0.005630706530572557
3.850901833999984,-0.006906109396368265,-0.004027498420327902,0.003953728824853897,-0.009033203125,-0.0059967041015625,-0.99365234375,18.42459487915039,6.88090705871582,-46.602561950683594,47.452667236328125,-20.258956909179688,69.69873046875,0.31876432128500254,0.007958224875014724,-0.00564635255468343
3.901121125000003,-0.006906109396368265,-0.004027498420327902,0.003953728824853897,-0.009033203125,-0.0059967041015625,-0.99365234375,18.53089141845703,6.905895233154297,-46.50628662109375,47.67375183105469,-20.372802734375,69.66914367675781,0.3188538570294328,0.007957443477333986,-0.00566118939187763
3.9677480419999824,-0.009395099245011806,-0.004914863966405392,0.005371595732867718,-0.008453369140625,-0.006195068359375,-0.9935760498046875,18.318504333496094,7.031238555908203,-46.452720642089844,47.522491455078125,-20.045944213867188,69.67750549316406,0.3188086098924297,0.007958723918195857,-0.0056827892099775195
4.048865374999991,-0.007192132994532585,-0.0054967645555734634,0.004341751337051392,-0.0091552734375,-0.0070037841796875,-0.993804931640625,18.470767974853516,6.8863983154296875,-46.58311462402344,47.57304382324219,-20.244216918945312,69.80329895019531,0.3188170676769902,0.007959936338302238,-0.005717426477043737
4.099937416999978,-0.007192132994532585,-0.0054967645555734634,0.004341751337051392,-0.0091552734375,-0.0070037841796875,-0.993804931640625,18.384326934814453,6.861536026000977,-46.595909118652344,47.710906982421875,-20.24560546875,69.88876342773438,0.31895875982390126,0.007946977652520915,-0.005723887795114672
4.168290999999982,-0.007426224648952484,-0.003769704606384039,0.003640541108325124,-0.008575439453125,-0.0057525634765625,-0.9936676025390625,18.448570251464844,7.034627914428711,-46.50868225097656,47.435272216796875,-20.101516723632812,70.00372314453125,0.3188121542294946,0.007932293408322195,-0.005727804811400487
4.2180687089999935,-0.007426224648952484,-0.003769704606384039,0.003640541108325124,-0.008575439453125,-0.0057525634765625,-0.9936676025390625,18.40130615234375,6.888891220092773,-46.57508850097656,47.638824462890625,-20.316116333007812,69.7066650390625,0.31870666297409767,0.007921735219278874,-0.005737778372012146
4.287962416999989,-0.006917827297002077,-0.006374276243150234,0.005680788774043322,-0.008636474609375,-0.0060272216796875,-0.993408203125,18.427658081054688,7.032686233520508,-46.72007751464844,47.46795654296875,-20.082489013671875,69.95454406738281,0.31868358610007663,0.007892032407087772,-0.005696659747525759
4.34305599999999,-0.006917827297002077,-0.006374276243150234,0.005680788774043322,-0.0088653564453125,-0.0067901611328125,-0.9938201904296875,18.506179809570312,6.886445999145508,-46.71483612060547,47.54920959472656,-20.260772705078125,69.80406188964844,0.3184618732744204,0.007895877944060445,-0.005667397302723386
4.4013709589999905,-0.008705074898898602,-0.006360960192978382,0.004278101958334446,-0.0088653564453125,-0.0067901611328125,-0.9938201904296875,18.318408966064453,7.148622512817383,-46.51493835449219,47.50238037109375,-19.971267700195312,69.85049438476562,0.31821961766518786,0.007894577110878959,-0.005703971205286583
4.4684763749999945,-0.009676596149802208,-0.0062517705373466015,0.007607053499668837,-0.0089263916015625,-0.00616455078125,-0.9930877685546875,18.362049102783203,6.967075347900391,-46.653419494628906,47.45893859863281,-20.290817260742188,69.81204223632812,0.31774734265522186,0.007902596964076462,-0.005711856135297172
4.544973874999982,-0.009676596149802208,-0.0062517705373466015,0.007607053499668837,-0.0087127685546875,-0.005889892578125,-0.994140625,18.373432159423828,6.880056381225586,-46.746337890625,47.42451477050781,-20.240936279296875,69.78004455566406,0.3176399533585055,0.00785041151099206,-0.0057573167156540145
4.601414250000005,-0.009319199249148369,-0.0046120621263980865,0.0034522556234151125,-0.0087127685546875,-0.005889892578125,-0.994140625,18.311969757080078,6.905210494995117,-46.6754150390625,47.491607666015625,-20.254104614257812,69.30128479003906,0.31753710655802525,0.007835860032778497,-0.0057883750927005435
4.668960624999983,-0.006897320970892906,-0.006835269276052713,0.005078648217022419,-0.009124755859375,-0.0066986083984375,-0.9940643310546875,18.368511199951172,6.9150848388671875,-46.850830078125,47.49150085449219,-20.281204223632812,69.73440551757812,0.31744947950781366,0.007802139113117645,-0.005787444014026548
4.718604208999977,-0.006897320970892906,-0.006835269276052713,0.005078648217022419,-0.009124755859375,-0.0066986083984375,-0.9940643310546875,18.449195861816406,6.846630096435547,-46.679664611816406,47.552734375,-20.286666870117188,69.58506774902344,0.31766628643355876,0.007793786996750992,-0.005763990379750593
4.792603374999999,-0.009349559433758259,-0.006727410946041346,0.003288205014541745,-0.0091705322265625,-0.0063629150390625,-0.99395751953125,18.310012817382812,6.912496566772461,-46.811378479003906,47.71452331542969,-20.409698486328125,69.30657958984375,0.3176576332805361,0.007746781064033538,-0.0058205113578031435
4.845167791999984,-0.009349559433758259,-0.006727410946041346,0.003288205014541745,-0.0081787109375,-0.0066070556640625,-0.99444580078125,18.36279296875,6.822385787963867,-46.80414581298828,47.513397216796875,-20.331817626953125,69.60151672363281,0.31788990240794285,0.0077294125345505026,-0.005796621373989557
4.89204429199998,-0.008795089088380337,-0.00376064982265234,0.006900250446051359,-0.0081787109375,-0.0066070556640625,-0.99444580078125,18.37359619140625,6.843105316162109,-46.47346496582031,47.68669128417969,-20.201339721679688,69.49386596679688,0.3183301215435756,0.007713115545081023,-0.005820890758019974
4.951447541999983,-0.008795089088380337,-0.00376064982265234,0.006900250446051359,-0.0086212158203125,-0.0050811767578125,-0.994384765625,18.470932006835938,6.675443649291992,-46.759498596191406,47.56672668457031,-20.16827392578125,69.47465515136719,0.3186535268467206,0.0077085756154116,-0.005852405155109667
5.001075458999992,-0.0067963870242238045,-0.005471197888255119,0.003855724586173892,-0.0086212158203125,-0.0050811767578125,-0.994384765625,18.39685821533203,7.044467926025391,-46.51964569091797,47.71165466308594,-20.44366455078125,69.39785766601562,0.3187730110772611,0.007696719049758204,-0.005858191409748977
5.068772124999981,-0.009957026690244675,-0.0043896883726119995,0.0073356772772967815,-0.008514404296875,-0.00604248046875,-0.994293212890625,18.446582794189453,6.866411209106445,-46.80268859863281,47.56169128417969,-20.28338623046875,69.73518371582031,0.31892829859400057,0.007701095361210202,-0.00584035572780007
5.147046249999988,-0.009957026690244675,-0.0043896883726119995,0.0073356772772967815,-0.00872802734375,-0.0055999755859375,-0.993621826171875,18.423583984375,7.006038665771484,-47.00080108642578,47.5404052734375,-20.088424682617188,69.37254333496094,0.3191190098074787,0.007715745429532888,-0.00581144892885682
5.194902584000005,-0.00794687308371067,-0.004026965703815222,0.00424214918166399,-0.00872802734375,-0.0055999755859375,-0.993621826171875,18.341690063476562,6.908567428588867,-46.956275939941406,47.7086181640625,-20.266586303710938,69.41288757324219,0.31915874859245597,0.007705836469162676,-0.005820429579944208
5.247573249999988,-0.00794687308371067,-0.004026965703815222,0.00424214918166399,-0.0091705322265625,-0.0054779052734375,-0.99310302734375,18.491409301757812,6.884181976318359,-46.80693054199219,47.53282165527344,-19.996322631835938,69.74214172363281,0.31916423587288084,0.007708738053655129,-0.005817660040870613
5.301130291999982,-0.009335445240139961,-0.0054304515942931175,0.0062429821118712425,-0.0091705322265625,-0.0054779052734375,-0.99310302734375,18.336711883544922,6.825885772705078,-46.670509338378906,47.69895935058594,-20.420730590820312,69.55644226074219,0.319023977766815,0.007685621512970016,-0.005859087663216485
5.353403083999979,-0.00634870957583189,-0.005242166109383106,0.00430180411785841,-0.0088653564453125,-0.0063934326171875,-0.994049072265625,18.535533905029297,6.794277191162109,-46.78253936767578,47.38067626953125,-20.216018676757812,69.77374267578125,0.3194541307278265,0.007657501669889743,-0.005918954822447042
5.418633333999992,-0.00634870957583189,-0.005242166109383106,0.00430180411785841,-0.0088653564453125,-0.0063934326171875,-0.994049072265625,18.432720184326172,6.890415191650391,-46.539886474609375,47.639801025390625,-20.45294189453125,69.58074951171875,0.3194636682567138,0.007631621555984898,-0.0059120740088395496
5.468067625000003,-0.007866444997489452,-0.003312173532322049,0.0029262814205139875,-0.0088043212890625,-0.0058746337890625,-0.993438720703125,18.458847045898438,6.71843147277832,-46.60423278808594,47.555328369140625,-20.235153198242188,69.80265808105469,0.3196150377797346,0.0075998452842199,-0.005908126271294671
5.550159167000004,-0.007866444997489452,-0.003312173532322049,0.0029262814205139875,-0.008880615234375,-0.0058441162109375,-0.9936676025390625,18.445518493652344,6.849388122558594,-46.60511779785156,47.53033447265625,-20.06756591796875,69.99679565429688,0.31944861869850266,0.007574965254893447,-0.005891679661575032
5.6004750839999815,-0.008037686347961426,-0.005197691265493631,0.004282895475625992,-0.008880615234375,-0.0058441162109375,-0.9936676025390625,18.263866424560547,7.056011199951172,-46.47718811035156,47.626861572265625,-20.070526123046875,69.93415832519531,0.3194150473255056,0.007585006115441677,-0.005873201935562805
5.654260499999992,-0.011927233077585697,-0.006249640136957169,0.004581968765705824,-0.0090789794921875,-0.0058441162109375,-0.9940643310546875,18.481136322021484,6.910615921020508,-46.47596740722656,47.45549011230469,-20.216110229492188,69.80882263183594,0.3192121519410675,0.0075991114034213506,-0.005852027974352572
5.719270958999999,-0.011927233077585697,-0.006249640136957169,0.004581968765705824,-0.0090789794921875,-0.0058441162109375,-0.9940643310546875,18.354900360107422,6.969747543334961,-46.53343200683594,47.59696960449219,-20.313949584960938,69.57766723632812,0.3192080134199579,0.0076224769807374726,-0.005872211301254194
5.768499583999983,-0.00947765726596117,-0.004713795147836208,0.002959304489195347,-0.0084228515625,-0.0066986083984375,-0.9933013916015625,18.373870849609375,6.999179840087891,-46.54173278808594,47.56880187988281,-20.194107055664062,69.88893127441406,0.31900430473607216,0.007628043927344596,-0.005899494459505079
5.859309792000005,-0.0062549663707613945,-0.004041879437863827,0.0041010016575455666,-0.008514404296875,-0.0061492919921875,-0.99383544921875,18.483661651611328,6.869497299194336,-46.691307067871094,47.44879150390625,-20.092269897460938,69.64704895019531,0.31904833565670876,0.0076501198864875036,-0.005867705218261691
5.919075875000004,-0.0062549663707613945,-0.004041879437863827,0.0041010016575455666,-0.008514404296875,-0.0061492919921875,-0.99383544921875,18.43309783935547,6.994781494140625,-46.54045104980469,47.728424072265625,-20.282867431640625,69.50180053710938,0.31907661477372096,0.0076833055849719846,-0.005885739624004649
5.998251624999995,-0.007269097957760096,-0.006970025133341551,0.0037803570739924908,-0.0083465576171875,-0.005523681640625,-0.9934844970703125,18.423763275146484,6.95610237121582,-46.69562530517578,47.558349609375,-20.080856323242188,69.14918518066406,0.319246857657276,0.007657945177607549,-0.005924772715823769
6.057105291999989,-0.007269097957760096,-0.006970025133341551,0.0037803570739924908,-0.0091400146484375,-0.006378173828125,-0.99322509765625,18.43126678466797,6.979711532592773,-46.9432373046875,47.26922607421875,-19.906768798828125,69.46957397460938,0.31914416730736245,0.00764274801567282,-0.005922830487767043
6.10280179199998,-0.011051585897803307,-0.0036517265252768993,0.0057130130007863045,-0.0091400146484375,-0.006378173828125,-0.99322509765625,18.31918716430664,7.108509063720703,-46.50447082519531,47.638336181640625,-20.234237670898438,69.3577880859375,0.3189019044596439,0.007637467531786837,-0.005931947292754391
6.152442958999984,-0.011051585897803307,-0.0036517265252768993,0.0057130130007863045,-0.00909423828125,-0.0059967041015625,-0.9930877685546875,18.471839904785156,6.924394607543945,-46.744903564453125,47.55671691894531,-20.092453002929688,69.43672180175781,0.3188934935416191,0.007605452536192098,-0.005921646589966151
6.219217499999985,-0.007962851785123348,-0.0028461201582103968,0.005120992194861174,-0.00909423828125,-0.0059967041015625,-0.9930877685546875,18.421630859375,6.948102951049805,-46.974151611328125,47.677703857421875,-20.357467651367188,69.34542846679688,0.31899121460654056,0.007603607666896548,-0.0058786019500624105
6.304210958999988,-0.006876814644783735,-0.003996339626610279,0.006856574676930904,-0.0093994140625,-0.0059051513671875,-0.99334716796875,18.376697540283203,7.063680648803711,-46.605735778808594,47.83528137207031,-20.310897827148438,69.26493835449219,0.31910404529180486,0.007582839692824565,-0.005890953770509319
6.3692950420000045,-0.00752103328704834,-0.00711729796603322,0.006651244591921568,-0.00787353515625,-0.0059967041015625,-0.9938201904296875,18.44432830810547,6.901477813720703,-46.74150848388672,47.35914611816406,-19.826766967773438,69.21897888183594,0.3191005413225334,0.007598696757764565,-0.005875345331497912
6.436036458999979,-0.00752103328704834,-0.00711729796603322,0.006651244591921568,-0.00787353515625,-0.0059967041015625,-0.9938201904296875,18.37716293334961,6.934181213378906,-46.84081268310547,47.53330993652344,-20.006683349609375,68.92207336425781,0.3189989851470096,0.007643189686893699,-0.005846248269830363
6.485996208999978,-0.005935653578490019,-0.007303719408810139,0.002779274946078658,-0.009613037109375,-0.0059356689453125,-0.993316650390625,18.375499725341797,6.961158752441406,-46.87217712402344,47.37696838378906,-20.219635009765625,69.20782470703125,0.31889839663871355,0.007616444113327718,-0.005881584713373991
6.552239749999984,-0.005935653578490019,-0.007303719408810139,0.002779274946078658,-0.0086669921875,-0.0066680908203125,-0.993133544921875,18.561176300048828,6.818708419799805,-46.896034240722656,47.63426208496094,-20.149154663085938,69.55708312988281,0.3187808991988474,0.007591418225166554,-0.0058641830811548825
6.602276666999984,-0.008254467509686947,-0.0067604342475533485,0.003719104453921318,-0.0086669921875,-0.0066680908203125,-0.993133544921875,18.400325775146484,7.031015396118164,-46.570648193359375,47.834136962890625,-20.266815185546875,69.00117492675781,0.3186924475570169,0.007594056658381177,-0.005865650266958688
6.6541665419999845,-0.008254467509686947,-0.0067604342475533485,0.003719104453921318,-0.008941650390625,-0.005950927734375,-0.993377685546875,18.469844818115234,6.928560256958008,-46.91551971435547,47.49937438964844,-20.08319091796875,69.39808654785156,0.3186490382316259,0.0076241460794072334,-0.005872075658647487
6.7190508749999935,-0.00890720821917057,-0.007216367404907942,0.002947852946817875,-0.008941650390625,-0.005950927734375,-0.993377685546875,18.398082733154297,6.934659957885742,-46.655723571777344,47.664947509765625,-20.443161010742188,69.42559814453125,0.31867577064397246,0.0075905549904610745,-0.005907713510670475
6.78581137499998,-0.00902491994202137,-0.0022208099253475666,0.005088235717266798,-0.0091705322265625,-0.00604248046875,-0.993499755859375,18.587020874023438,6.665369033813477,-46.667396545410156,47.53987121582031,-20.015548706054688,69.47027587890625,0.319192893178969,0.0075665132642184895,-0.005938316587559775
6.854322833999987,-0.00902491994202137,-0.0022208099253475666,0.005088235717266798,-0.00848388671875,-0.0060272216796875,-0.993743896484375,18.342689514160156,6.977710723876953,-46.63226318359375,47.455841064453125,-20.067153930664062,69.59471130371094,0.31915465472392973,0.007571634657854078,-0.005991960795437255
6.919657000000001,-0.009339173324406147,-0.005575061310082674,0.0033217607997357845,-0.00848388671875,-0.0060272216796875,-0.993743896484375,18.569332122802734,6.845987319946289,-46.73634338378906,47.80224609375,-20.287918090820312,69.37214660644531,0.3191736819961745,0.0075532726105382395,-0.005973886549708701
6.98630399999999,-0.009533317759633064,-0.004056793171912432,0.0056861150078475475,-0.0081939697265625,-0.0061492919921875,-0.994140625,18.348880767822266,6.83955192565918,-46.784881591796875,47.403717041015625,-20.23736572265625,69.32809448242188,0.31922512334997044,0.0075622212741481495,-0.005985634182050731
7.036286875000002,-0.009533317759633064,-0.004056793171912432,0.0056861150078475475,-0.0081939697265625,-0.0061492919921875,-0.994140625,18.456405639648438,6.861713409423828,-46.88810729980469,47.603485107421875,-20.295013427734375,69.10507202148438,0.3191597480228585,0.007534228682132319,-0.005982230382821118
7.102708167000003,-0.007437676191329956,-0.0037260286044329405,0.003765443339943886,-0.0086669921875,-0.00616455078125,-0.9936981201171875,18.33895492553711,6.7973785400390625,-46.934059143066406,47.51422119140625,-20.350967407226562,69.08499145507812,0.3192369473287092,0.007500083975874854,-0.005994308411428557
7.160253291999993,-0.007437676191329956,-0.0037260286044329405,0.003765443339943886,-0.0088043212890625,-0.006622314453125,-0.9939117431640625,18.30141830444336,6.896446228027344,-46.81249237060547,47.39460754394531,-20.15863037109375,69.30935668945312,0.3192181360994808,0.007481858178034397,-0.005972024401971853
7.219413083999996,-0.00771624268963933,-0.004136155359447002,0.006814230233430862,-0.0088043212890625,-0.006622314453125,-0.9939117431640625,18.489776611328125,6.843381881713867,-46.83434295654297,47.684326171875,-20.306472778320312,69.22637939453125,0.3193028231578226,0.007495034979267478,-0.005955751667344132
7.269349250000005,-0.009918410331010818,-0.0049279131926596165,0.0020482372492551804,-0.009185791015625,-0.0063018798828125,-0.9934234619140625,18.38292694091797,6.826808929443359,-46.72180938720703,47.4822998046875,-20.263519287109375,69.34637451171875,0.3193926867855696,0.007450755013442731,-0.005993618069241074
7.335979041999991,-0.009918410331010818,-0.0049279131926596165,0.0020482372492551804,-0.009185791015625,-0.0063018798828125,-0.9934234619140625,18.50039291381836,6.696035385131836,-46.79420471191406,47.708984375,-20.4425048828125,69.26271057128906,0.3196727063472305,0.007455277425004775,-0.00601560324252178
7.406091833999994,-0.010937335900962353,-0.007495466619729996,0.00436065997928381,-0.008758544921875,-0.006134033203125,-0.993988037109375,18.473773956298828,6.852909088134766,-46.79113006591797,47.61689758300781,-20.238525390625,69.26046752929688,0.3198295117401522,0.007408876745414379,-0.006073146414572806
7.469873084,-0.008972722105681896,-0.004767591133713722,0.0021968416403979063,-0.0084381103515625,-0.0062103271484375,-0.9932098388671875,18.477344512939453,6.75714111328125,-46.838470458984375,47.589508056640625,-20.32818603515625,69.34564208984375,0.32003070481316676,0.0074092388596470595,-0.006097720269690713
7.519672041999996,-0.008972722105681896,-0.004767591133713722,0.0021968416403979063,-0.0084381103515625,-0.0062103271484375,-0.9932098388671875,18.43730926513672,6.926206588745117,-46.837440490722656,47.62330627441406,-20.118087768554688,69.15615844726562,0.3202360135555715,0.0073853429961469735,-0.00611595585643004
7.586223292,-0.008195878006517887,-0.005030977539718151,0.006679474376142025,-0.0091552734375,-0.006011962890625,-0.993988037109375,18.406803131103516,6.965202331542969,-46.62444305419922,47.45378112792969,-20.083114624023438,69.47749328613281,0.320168402175792,0.007341434987942386,-0.006123828533509292
7.655008458999987,-0.008195878006517887,-0.005030977539718151,0.006679474376142025,-0.009033203125,-0.006591796875,-0.993743896484375,18.309040069580078,6.972719192504883,-46.73779296875,47.40910339355469,-20.058120727539062,69.41822814941406,0.32025183208673913,0.007299116487293441,-0.006146423412000439
7.719878209000001,-0.006647516507655382,-0.0043902210891246796,0.00401524780318141,-0.009033203125,-0.006591796875,-0.993743896484375,18.504077911376953,6.93463134765625,-46.66337585449219,47.736236572265625,-20.204727172851562,69.42222595214844,0.3200926905388965,0.0072594582081132565,-0.006161831732051197
7.786566999999991,-0.009799634106457233,-0.002145176287740469,0.005006209947168827,-0.0087738037109375,-0.006591796875,-0.994873046875,18.51984405517578,6.956640243530273,-46.68840789794922,47.62713623046875,-20.120086669921875,69.45887756347656,0.3199335487116392,0.007248463657178027,-0.006198791563333393
7.861459666999991,-0.009799634106457233,-0.002145176287740469,0.005006209947168827,-0.008941650390625,-0.005615234375,-0.993927001953125,18.39958953857422,7.091791152954102,-46.68217468261719,47.493133544921875,-19.961883544921875,69.39401245117188,0.31973542966715596,0.007187957417857043,-0.006226135850903331
7.919971708999981,-0.00926274061203003,-0.0065625617280602455,0.005559881217777729,-0.008941650390625,-0.005615234375,-0.993927001953125,18.423004150390625,6.8939208984375,-46.741912841796875,47.66667175292969,-20.249435424804688,69.3521728515625,0.3195734675119042,0.007185300406610828,-0.006243077163861075
7.9864957919999995,-0.007083475589752197,-0.005928196478635073,0.004698348697274923,-0.0086517333984375,-0.005706787109375,-0.99359130859375,18.401409149169922,7.199535369873047,-46.719337463378906,47.509979248046875,-19.837615966796875,69.36180114746094,0.3190840744139943,0.007175243469665033,-0.0062812921477347315
8.036377041999998,-0.007083475589752197,-0.005928196478635073,0.004698348697274923,-0.0086517333984375,-0.005706787109375,-0.99359130859375,18.45172882080078,6.981464385986328,-46.86670684814453,47.66131591796875,-20.145095825195312,69.14103698730469,0.31875474144445964,0.00717399937510246,-0.006295758021025862
8.086544541999984,-0.008082693442702293,-0.005458947736769915,0.0043710460886359215,-0.0087127685546875,-0.0064697265625,-0.9940032958984375,18.304340362548828,7.0193023681640625,-46.75849151611328,47.361175537109375,-20.00225830078125,69.39358520507812,0.3188228858478676,0.007135301222057132,-0.006293417974916902
8.137105833999982,-0.008082693442702293,-0.005458947736769915,0.0043710460886359215,-0.0087127685546875,-0.0064697265625,-0.9940032958984375,18.57646942138672,6.876274108886719,-46.599876403808594,47.787811279296875,-20.269073486328125,69.50701904296875,0.3187107318813195,0.0071364990879721505,-0.006323943755739936
8.204278125000002,-0.010100038722157478,-0.004832039587199688,0.002956907730549574,-0.00897216796875,-0.0062713623046875,-0.9946136474609375,18.477745056152344,6.85276985168457,-46.720909118652344,47.640960693359375,-20.275314331054688,69.2686767578125,0.3184914544491313,0.007102685150088349,-0.006325572493085606
8.258276209000002,-0.010100038722157478,-0.004832039587199688,0.002956907730549574,-0.008880615234375,-0.0065460205078125,-0.9937896728515625,18.278274536132812,6.890594482421875,-46.633201599121094,47.36387634277344,-20.173355102539062,69.58534240722656,0.318505941339416,0.007082530171813247,-0.006316026179673322
8.320000958999998,-0.010476343333721161,-0.003120958572253585,0.006699447985738516,-0.008880615234375,-0.0065460205078125,-0.9937896728515625,18.466354370117188,6.8146820068359375,-46.4234619140625,47.66664123535156,-20.266799926757812,69.66189575195312,0.31890555693803707,0.007112420497814378,-0.006331219225898434
8.386446833999997,-0.007392402272671461,-0.0054789213463664055,0.003201385959982872,-0.008697509765625,-0.006134033203125,-0.9944000244140625,18.374759674072266,6.816186904907227,-46.62126922607422,47.495208740234375,-20.293746948242188,69.57345581054688,0.31894153693988825,0.007145276997603911,-0.006286530798289783
8.437130124999982,-0.007392402272671461,-0.0054789213463664055,0.003201385959982872,-0.008697509765625,-0.006134033203125,-0.9944000244140625,18.443668365478516,6.755105972290039,-46.55168914794922,47.632659912109375,-20.425750732421875,69.57991027832031,0.31925205347133984,0.007131543940199562,-0.00627346706590387
8.507613666999987,-0.007995341904461384,-0.005395564250648022,0.0038365498185157776,-0.0087890625,-0.00604248046875,-0.993896484375,18.480785369873047,6.849409103393555,-46.934043884277344,47.63824462890625,-20.245452880859375,69.08917236328125,0.31969943494546066,0.007118344475854538,-0.006272363965810947
8.570201209000004,-0.009592439979314804,-0.007639809977263212,0.005730856209993362,-0.0091552734375,-0.0066070556640625,-0.9940948486328125,18.45113754272461,6.988182067871094,-46.76897430419922,47.552947998046875,-20.058486938476562,69.42250061035156,0.3194915172600894,0.007120903268116038,-0.006313089724096521
8.62003654199998,-0.009592439979314804,-0.007639809977263212,0.005730856209993362,-0.0091552734375,-0.0066070556640625,-0.9940948486328125,18.469295501708984,6.864398956298828,-46.715110778808594,47.65379333496094,-20.284164428710938,69.29237365722656,0.3194204909824322,0.007126505636129876,-0.006354905186258958
8.670380959,-0.00905607920140028,-0.0059596216306090355,0.006136189214885235,-0.0081787109375,-0.00634765625,-0.9926910400390625,18.381805419921875,6.995891571044922,-46.68346405029297,47.486328125,-20.047378540039062,69.36872863769531,0.3195033317354851,0.007126421761045052,-0.006376530347027733
8.736996208999983,-0.00905607920140028,-0.0059596216306090355,0.006136189214885235,-0.0081787109375,-0.00634765625,-0.9926910400390625,18.48686981201172,6.942602157592773,-46.57110595703125,47.636505126953125,-20.146865844726562,69.51251220703125,0.31945406120060443,0.00714034764107244,-0.00639538433469127
8.80520633399999,-0.006923153530806303,-0.006200638134032488,0.005873601883649826,-0.00933837890625,-0.00592041015625,-0.9925994873046875,18.40341567993164,6.98771858215332,-46.698265075683594,47.62117004394531,-20.115066528320312,69.34268188476562,0.3190131452097591,0.007139317411621618,-0.006370081802219495
8.859538583999978,-0.006923153530806303,-0.006200638134032488,0.005873601883649826,-0.0097198486328125,-0.0057830810546875,-0.9941864013671875,18.365032196044922,7.06085205078125,-46.35798645019531,47.490447998046875,-20.018630981445312,69.81851196289062,0.318620466876674,0.007137617913595189,-0.006362846468051691
8.920508291999994,-0.007960987277328968,-0.00532499048858881,0.004674113821238279,-0.0097198486328125,-0.0057830810546875,-0.9941864013671875,18.349212646484375,6.991905212402344,-46.51472473144531,47.5220947265625,-20.081405639648438,69.501708984375,0.3185496208611898,0.0071476824734338085,-0.006374999754099091
8.987140584000002,-0.007111439015716314,-0.0022887205705046654,0.0062491074204444885,-0.0089874267578125,-0.0062713623046875,-0.99395751953125,18.35263442993164,7.085941314697266,-46.43108367919922,47.47718811035156,-19.955551147460938,69.73974609375,0.3183251765892329,0.00710055953755263,-0.006435985999337743
9.036899041999988,-0.007111439015716314,-0.0022887205705046654,0.0062491074204444885,-0.0089874267578125,-0.0062713623046875,-0.99395751953125,18.40997314453125,7.018608093261719,-46.58527374267578,47.59440612792969,-20.11248779296875,69.48040771484375,0.31818164683635763,0.007074745809619565,-0.006460635645343813
9.107868499999995,-0.009719206020236015,-0.003748665563762188,0.00549356872215867,-0.00909423828125,-0.0059967041015625,-0.9942169189453125,18.45861053466797,7.022029876708984,-46.65369415283203,47.67109680175781,-20.086044311523438,69.43359375,0.31801049293073763,0.007113336888935774,-0.006482932512779884
9.166061499999984,-0.009719206020236015,-0.003748665563762188,0.00549356872215867,-0.009002685546875,-0.005615234375,-0.993682861328125,18.292755126953125,7.009649276733398,-46.49546813964844,47.40080261230469,-20.076385498046875,69.70416259765625,0.31778676712706494,0.007154955413390679,-0.006436408658175858
9.220365458999993,-0.007395598106086254,-0.0031617048662155867,0.0030370689928531647,-0.009002685546875,-0.005615234375,-0.993682861328125,18.4853515625,6.891366958618164,-46.58094024658203,47.721405029296875,-20.24127197265625,69.56663513183594,0.3177634667967043,0.007169963887673418,-0.006425292990078549
9.271563458999992,-0.009014533832669258,-0.003585147438570857,0.0033446638844907284,-0.00921630859375,-0.00628662109375,-0.9945526123046875,18.314990997314453,7.054895401000977,-46.60991668701172,47.42732238769531,-19.980606079101562,69.5413818359375,0.3176488364724132,0.0071767734521226674,-0.006437606856429948
9.337038084,-0.009014533832669258,-0.003585147438570857,0.0033446638844907284,-0.00921630859375,-0.00628662109375,-0.9945526123046875,18.39154815673828,6.909051895141602,-46.730064392089844,47.554473876953125,-20.18475341796875,69.31913757324219,0.31768617817569483,0.007202136853806245,-0.006450208927688484
9.408737000000002,-0.007454453967511654,-0.0017963021527975798,0.005318332463502884,-0.0081024169921875,-0.005950927734375,-0.99365234375,18.50198745727539,6.874380111694336,-46.823974609375,47.7198486328125,-20.21502685546875,69.22824096679688,0.3179176672632627,0.007203765462321636,-0.006462552399938051
9.472730541999994,-0.009225722402334213,-0.005143895745277405,0.005505819339305162,-0.00848388671875,-0.0063934326171875,-0.99407958984375,18.45681381225586,6.845731735229492,-46.59210968017578,47.578125,-20.194076538085938,69.52919006347656,0.3181947147974694,0.007176951890366972,-0.006483281165806955
9.537186916999985,-0.009225722402334213,-0.005143895745277405,0.005505819339305162,-0.00848388671875,-0.0063934326171875,-0.99407958984375,18.561866760253906,6.636508941650391,-46.708580017089844,47.77630615234375,-20.51690673828125,69.38789367675781,0.31878678289226914,0.007169636184604733,-0.006533052639733551
9.587133249999994,-0.009881925769150257,-0.00481419637799263,0.0023840616922825575,-0.0091094970703125,-0.0057373046875,-0.993377685546875,18.46078872680664,6.854347229003906,-46.660911560058594,47.55278015136719,-20.219146728515625,69.72904968261719,0.3191839550256828,0.007183541040657585,-0.0065699797300512045
9.660222417,-0.009881925769150257,-0.00481419637799263,0.0023840616922825575,-0.0091094970703125,-0.0057373046875,-0.993377685546875,18.45089340209961,6.88897705078125,-46.57899475097656,47.63310241699219,-20.1041259765625,69.74992370605469,0.319783863904493,0.0072018931162448774,-0.006646660631757877
9.720496249999997,-0.009820672683417797,-0.004500742070376873,0.006205964367836714,-0.009033203125,-0.0057830810546875,-0.993682861328125,18.465286254882812,6.775856018066406,-46.3837890625,47.75250244140625,-20.212738037109375,69.50285339355469,0.3199776059748638,0.007219645832603625,-0.0066571658394892095
9.78715837499999,-0.008763131685554981,-0.0037702370900660753,0.0037209687288850546,-0.008331298828125,-0.00592041015625,-0.9937896728515625,18.517807006835938,6.866844177246094,-46.57500457763672,47.620635986328125,-20.087478637695312,69.75047302246094,0.3201537657194495,0.007224518017322022,-0.006672715562185365
9.837554874999995,-0.008763131685554981,-0.0037702370900660753,0.0037209687288850546,-0.008331298828125,-0.00592041015625,-0.9937896728515625,18.40831756591797,6.9884490966796875,-46.69090270996094,47.791107177734375,-20.225814819335938,69.51809692382812,0.32015835968010636,0.007179381092730719,-0.0066286434504458655
9.90990499999998,-0.010848119854927063,-0.00526773277670145,0.005315935704857111,-0.009002685546875,-0.0050506591796875,-0.9938507080078125,18.321475982666016,6.946184158325195,-46.79344177246094,47.704376220703125,-20.1419677734375,69.33189392089844,0.3199036348971944,0.007153207136886144,-0.006644905304672626
9.961860083999994,-0.010848119854927063,-0.00526773277670145,0.005315935704857111,-0.009002685546875,-0.0050506591796875,-0.9938507080078125,18.466167449951172,6.864948272705078,-46.65888214111328,47.53636169433594,-20.016738891601562,69.84126281738281,0.31977982691848816,0.007136097520946964,-0.0066384403274080085
10.011946792000003,-0.00791251752525568,-0.005855225957930088,0.006906642112880945,-0.0090789794921875,-0.006988525390625,-0.99420166015625,18.329540252685547,7.034708023071289,-46.61357116699219,47.77998352050781,-20.143020629882812,69.58682250976562,0.3196251783457929,0.007129414623332983,-0.006652179168188482
10.071173583999979,-0.00791251752525568,-0.005855225957930088,0.006906642112880945,-0.009124755859375,-0.006256103515625,-0.9941864013671875,18.49211883544922,6.820262908935547,-46.67558288574219,47.622528076171875,-20.225601196289062,69.46945190429688,0.3196471117550935,0.0071426672621703515,-0.006674863827430546
10.121215041999989,-0.010722419247031212,-0.0033910030033439398,0.005591839086264372,-0.009124755859375,-0.006256103515625,-0.9941864013671875,18.43111801147461,6.768215179443359,-46.669212341308594,47.92509460449219,-20.365142822265625,69.53668212890625,0.32000565093726074,0.007129126294123996,-0.006672523530510959
10.188015667000002,-0.009997240267693996,-0.005314071662724018,0.0051686628721654415,-0.009124755859375,-0.006011962890625,-0.994354248046875,18.404552459716797,7.006175994873047,-46.65313720703125,47.55235290527344,-19.98309326171875,69.81088256835938,0.3197181973576886,0.007127568320470333,-0.006754633870728204
10.238123708999979,-0.009997240267693996,-0.005314071662724018,0.0051686628721654415,-0.009124755859375,-0.006011962890625,-0.994354248046875,18.41809844970703,7.035575866699219,-46.47099304199219,47.757537841796875,-20.0723876953125,69.60458374023438,0.31950525501458754,0.0071180816275262316,-0.00675618174160781
10.311992124999989,-0.00945235788822174,-0.003422162029892206,0.004114051349461079,-0.009033203125,-0.0070343017578125,-0.9933013916015625,18.54259490966797,6.885932922363281,-46.33790588378906,47.863677978515625,-20.23004150390625,69.59248352050781,0.3201581805838848,0.007140977375729913,-0.006809432764655186
10.363821583999993,-0.00945235788822174,-0.003422162029892206,0.004114051349461079,-0.009033203125,-0.0070343017578125,-0.9933013916015625,18.496376037597656,6.982454299926758,-46.618560791015625,47.88720703125,-20.244705200195312,69.77073669433594,0.3203818211258851,0.007105890686913305,-0.006826952204054304
10.421363166999981,-0.009663013741374016,-0.003233077470213175,0.004563592839986086,-0.0094451904296875,-0.0056304931640625,-0.9937744140625,18.43657684326172,6.870948791503906,-46.866920471191406,47.802947998046875,-20.267501831054688,69.35566711425781,0.320641596286535,0.007092303017887393,-0.006851389326179477
10.488105875000002,-0.009862750768661499,-0.00649678148329258,0.004204598721116781,-0.0084075927734375,-0.0054931640625,-0.99432373046875,18.493125915527344,6.870420455932617,-46.713966369628906,47.693756103515625,-20.100845336914062,69.66392517089844,0.3206819844215017,0.007098552776919386,-0.0068222306412634515
10.554568125000003,-0.009862750768661499,-0.00649678148329258,0.004204598721116781,-0.0084075927734375,-0.0054931640625,-0.99432373046875,18.407115936279297,6.880947113037109,-46.87989807128906,47.60655212402344,-20.23626708984375,69.4072265625,0.3206964000555969,0.007100948464348584,-0.0068373305539267655
10.605181416999983,-0.009035838767886162,-0.00224903947673738,0.00401551416143775,-0.0086669921875,-0.0057220458984375,-0.9942169189453125,18.427875518798828,6.827323913574219,-46.841590881347656,47.78181457519531,-20.153167724609375,69.22959899902344,0.3209585384334987,0.007101584141428396,-0.006853474890117531
10.671670291999988,-0.009035838767886162,-0.00224903947673738,0.00401551416143775,-0.0092010498046875,-0.0059814453125,-0.99407958984375,18.491939544677734,6.867303848266602,-46.76280975341797,47.65571594238281,-20.174270629882812,69.6839599609375,0.3209552127101787,0.0071155848587718465,-0.006870705517780666
10.738281416999996,-0.010177269577980042,-0.004246410448104143,0.002907373011112213,-0.0092010498046875,-0.0059814453125,-0.99407958984375,18.371349334716797,6.8990020751953125,-46.68611145019531,47.662933349609375,-20.278671264648438,69.31338500976562,0.3210344061167029,0.007136162120591614,-0.006875773897639261
10.804565499999995,-0.008756740018725395,-0.004774781409651041,0.0036732980515807867,-0.00860595703125,-0.006195068359375,-0.9944305419921875,18.466022491455078,6.919160842895508,-46.69725036621094,47.66365051269531,-20.313140869140625,69.37767028808594,0.32102121796002137,0.007134836275113244,-0.0068620858030720155
10.854510500000004,-0.008756740018725395,-0.004774781409651041,0.0036732980515807867,-0.00860595703125,-0.006195068359375,-0.9944305419921875,18.345691680908203,6.827898025512695,-46.772438049316406,47.66807556152344,-20.274795532226562,69.4085693359375,0.3211670722783073,0.00712880667596986,-0.0068422948541312
10.925638958999997,-0.007199056912213564,-0.005191033706068993,0.004276770167052746,-0.0087890625,-0.005889892578125,-0.9940643310546875,18.52145004272461,6.710466384887695,-46.84168243408203,47.69242858886719,-20.381134033203125,69.41575622558594,0.3213446794861226,0.007107975993959069,-0.006889854532334004
10.954975542,-0.007199056912213564,-0.005191033706068993,0.004276770167052746,-0.0087890625,-0.005889892578125,-0.9940643310546875,18.292194366455078,6.781095504760742,-46.743736267089844,47.58601379394531,-20.180511474609375,69.41169738769531,0.32163170827543003,0.007100653427424063,-0.0069101561353158
11.02151920899999,-0.009810020215809345,-0.004093545023351908,0.00509888818487525,-0.0081329345703125,-0.0061492919921875,-0.9937286376953125,18.396713256835938,6.788028717041016,-46.59947204589844,47.60661315917969,-20.287261962890625,69.49032592773438,0.3221157205899831,0.007120009306306577,-0.006890231471690626
11.08836174999999,-0.008961536921560764,-0.006864830385893583,0.005693572107702494,-0.008331298828125,-0.0067291259765625,-0.9944915771484375,18.452484130859375,6.774406433105469,-46.66908264160156,47.610992431640625,-20.356369018554688,69.55429077148438,0.3223012631172326,0.0071117960245928955,-0.006896365411237511
11.154650791999984,-0.008961536921560764,-0.006864830385893583,0.005693572107702494,-0.008331298828125,-0.0067291259765625,-0.9944915771484375,18.414127349853516,6.77125358581543,-46.81584930419922,47.616455078125,-20.30126953125,69.57341003417969,0.3224962089500617,0.007063726724348449,-0.006916162223868141
11.222007542,-0.008329036645591259,-0.0041494714096188545,0.004336425103247166,-0.0088653564453125,-0.0055084228515625,-0.9932861328125,18.564613342285156,6.708106994628906,-46.746299743652344,47.814727783203125,-20.3717041015625,69.53321838378906,0.32296141535505557,0.0070134947035161216,-0.00692114467989987
11.274311334000004,-0.008329036645591259,-0.0041494714096188545,0.004336425103247166,-0.0090179443359375,-0.005523681640625,-0.99383544921875,18.434341430664062,6.798915863037109,-46.81599426269531,47.566253662109375,-20.302398681640625,69.28404235839844,0.323066529119242,0.0070024024245294355,-0.006913170218598226
11.33848120899998,-0.009183111600577831,-0.0028503811918199062,0.003674097126349807,-0.0090179443359375,-0.005523681640625,-0.99383544921875,18.352813720703125,6.989784240722656,-46.695098876953125,47.63739013671875,-20.220718383789062,69.67311096191406,0.3232326398386495,0.007031237223510069,-0.006892494348870862
11.452500958999991,-0.007268831599503756,-0.004895955324172974,0.004565456882119179,-0.0087890625,-0.0066375732421875,-0.9935150146484375,18.54961395263672,6.906558990478516,-46.775794982910156,47.74568176269531,-20.449966430664062,69.50852966308594,0.32336771112106544,0.007047610674937711,-0.006884533660167628
11.458890833999988,-0.007268831599503756,-0.004895955324172974,0.004565456882119179,-0.0087890625,-0.0066375732421875,-0.9935150146484375,18.440452575683594,6.849016189575195,-46.71067810058594,47.532257080078125,-20.277755737304688,69.52388000488281,0.3235683522072468,0.0070410158158529775,-0.006877009745840467
11.538196624999983,-0.01028459519147873,-0.005960420705378056,0.00392709719017148,-0.0090179443359375,-0.0065765380859375,-0.9936981201171875,18.559650421142578,6.714963912963867,-46.780181884765625,47.62089538574219,-20.093673706054688,69.35392761230469,0.3238584642446156,0.007022008062827536,-0.0068755256189196486
11.553673167,-0.01028459519147873,-0.005960420705378056,0.00392709719017148,-0.0090179443359375,-0.0065765380859375,-0.9936981201171875,18.438270568847656,6.905956268310547,-46.7550048828125,47.58619689941406,-20.233779907226562,69.41987609863281,0.323813273672028,0.00701769575433264,-0.006877496855492392
11.66603895899999,-0.008104798384010792,-0.002916427794843912,0.0031273500062525272,-0.0093994140625,-0.00634765625,-0.9940185546875,18.328338623046875,6.943286895751953,-46.61677551269531,47.539794921875,-20.169097900390625,69.4835205078125,0.3236394117750065,0.007043112340671262,-0.006912356927530956
11.750362416999991,-0.006965497974306345,-0.003317233407869935,0.006420348770916462,-0.0088043212890625,-0.005462646484375,-0.9945068359375,18.561077117919922,6.85643196105957,-46.70374298095703,47.754669189453125,-20.21893310546875,69.5157470703125,0.3236048313491047,0.00705066588866151,-0.006915122292345566
11.757714083999986,-0.006965497974306345,-0.003317233407869935,0.006420348770916462,-0.0088043212890625,-0.005462646484375,-0.9945068359375,18.549461364746094,6.716480255126953,-46.553138732910156,47.59281921386719,-20.329620361328125,69.64689636230469,0.3239603223005805,0.007065139179756202,-0.00690757231349014
11.862349959,-0.009456618689000607,-0.00504029868170619,0.005929528269916773,-0.008331298828125,-0.006378173828125,-0.993133544921875,18.439720153808594,6.877538681030273,-46.716644287109375,47.59663391113281,-20.275146484375,69.33799743652344,0.32399156625463854,0.007056818613990805,-0.006952092435540234
11.870356791999995,-0.009456618689000607,-0.00504029868170619,0.005929528269916773,-0.008331298828125,-0.006378173828125,-0.993133544921875,18.491771697998047,6.929353713989258,-46.772064208984375,47.66682434082031,-20.320938110351562,69.32283020019531,0.3240697966401426,0.007071048194429282,-0.006958834651955057
12.012847416999989,-0.006413158029317856,-0.0068326061591506,0.004664526786655188,-0.00946044921875,-0.0067901611328125,-0.9941864013671875,18.369571685791016,6.845726013183594,-46.72843933105469,47.42022705078125,-20.17315673828125,69.20993041992188,0.3241038639259973,0.007083645843689345,-0.006951475943098275
12.018789999999996,-0.006413158029317856,-0.0068326061591506,0.004664526786655188,-0.0087127685546875,-0.0063323974609375,-0.994781494140625,18.449115753173828,6.982082366943359,-46.65355682373047,47.42906188964844,-19.923431396484375,69.48927307128906,0.32348328936258847,0.007093356903658178,-0.0069607955343468485
12.03832749999998,-0.008949819020926952,-0.006725546903908253,0.003596865339204669,-0.0087127685546875,-0.0063323974609375,-0.994781494140625,18.42629623413086,6.900999069213867,-46.791481018066406,47.578338623046875,-20.119232177734375,69.1412353515625,0.3232464002439992,0.007064080421696102,-0.006951691837302415
12.188336042000003,-0.009813481941819191,-0.007427290081977844,0.0035862126387655735,-0.0087738037109375,-0.0052032470703125,-0.993682861328125,18.335693359375,6.930490493774414,-46.687232971191406,47.51927185058594,-20.137008666992188,69.26002502441406,0.32305610805878504,0.007066781901693979,-0.00695637901741327
12.19519008399999,-0.009813481941819191,-0.007427290081977844,0.0035862126387655735,-0.0091400146484375,-0.00665283203125,-0.9940185546875,18.425350189208984,6.907642364501953,-46.86565399169922,47.53498840332031,-20.062454223632812,69.23129272460938,0.3225387249379239,0.007089983944357382,-0.006996980423484273
12.36534845899999,-0.007220095954835415,-0.005111671518534422,0.0037944719661027193,-0.0091400146484375,-0.00665283203125,-0.9940185546875,18.427490234375,7.021354675292969,-46.74883270263672,47.5955810546875,-20.18048095703125,69.33950805664062,0.32247771527406377,0.007104073567118421,-0.00697556292371847
12.37411208399999,-0.007908789440989494,-0.00458836043253541,0.005835518706589937,-0.0085906982421875,-0.005523681640625,-0.99359130859375,18.483657836914062,7.012189865112305,-46.677650451660156,47.67047119140625,-20.005355834960938,69.451416015625,0.3220482055347365,0.007109400421119038,-0.006950983881512634
12.374330583999978,-0.007908789440989494,-0.00458836043253541,0.005835518706589937,-0.0085906982421875,-0.005523681640625,-0.99359130859375,18.423824310302734,6.8897705078125,-46.57262420654297,47.64131164550781,-20.292312622070312,69.32624816894531,0.3219013920935602,0.007132533601869466,-0.00697954365474014
12.524825249999992,-0.00720411678776145,-0.005685849115252495,0.0029294772539287806,-0.0086517333984375,-0.0057525634765625,-0.9940185546875,18.361297607421875,7.0013275146484375,-46.790931701660156,47.44703674316406,-20.125335693359375,69.51522827148438,0.3212736928658946,0.00714221742050603,-0.007007007975689034
12.530866250000003,-0.00720411678776145,-0.005685849115252495,0.0029294772539287806,-0.008453369140625,-0.00592041015625,-0.99322509765625,18.408851623535156,6.932275772094727,-46.609397888183594,47.58216857910156,-19.96966552734375,69.45823669433594,0.32110178938425255,0.007118877969203174,-0.007013060492098358
12.538110333999981,-0.010435330681502819,-0.0037713022902607918,0.006991064175963402,-0.008453369140625,-0.00592041015625,-0.99322509765625,18.318050384521484,6.889461517333984,-46.633819580078125,47.442138671875,-20.140472412109375,69.24491882324219,0.3210763416915939,0.007118586628157875,-0.007027298828098825
12.699260458999987,-0.007435279432684183,-0.0052267201244831085,0.0060232714749872684,-0.0089263916015625,-0.0059051513671875,-0.9927215576171875,18.36682891845703,6.978525161743164,-46.59016418457031,47.622528076171875,-20.12908935546875,69.4649658203125,0.3209166025688078,0.007090753345632957,-0.0070518167092394595
12.70461341699999,-0.007435279432684183,-0.0052267201244831085,0.0060232714749872684,-0.0091400146484375,-0.0066680908203125,-0.9933319091796875,18.391971588134766,6.871904373168945,-46.497222900390625,47.623291015625,-20.199386596679688,69.37478637695312,0.32086226239168164,0.007065444852639354,-0.007082691579289096
12.731551792000005,-0.008578574284911156,-0.005057875532656908,0.003796602366492152,-0.0091400146484375,-0.0066680908203125,-0.9933319091796875,18.36009979248047,7.027971267700195,-46.64500427246094,47.53373718261719,-20.211822509765625,69.45553588867188,0.3208025325359757,0.007074944471289943,-0.0070816597251597765
12.875772958999988,-0.006914897821843624,-0.0043654534965753555,0.003044259501621127,-0.00885009765625,-0.006134033203125,-0.9940032958984375,18.427173614501953,6.8722686767578125,-46.64990234375,47.71318054199219,-20.2708740234375,69.49435424804688,0.3210560110741552,0.0070732315069051655,-0.007102678013028163
12.886425666999997,-0.006914897821843624,-0.0043654534965753555,0.003044259501621127,-0.00885009765625,-0.006134033203125,-0.9940032958984375,18.40277099609375,6.890419006347656,-46.60735321044922,47.45442199707031,-20.201095581054688,69.47221374511719,0.32114859245910604,0.007039488587092098,-0.007081382797202628
12.893005166999984,-0.0076153092086315155,-0.004552407655864954,0.0054213968105614185,-0.008544921875,-0.005645751953125,-0.9934234619140625,18.34799575805664,6.928009033203125,-46.61572265625,47.68757629394531,-20.139999389648438,69.49685668945312,0.3211351192011485,0.00707281034968006,-0.007097876345358372
13.035944291999982,-0.0076153092086315155,-0.004552407655864954,0.0054213968105614185,-0.008544921875,-0.005645751953125,-0.9934234619140625,18.30419158935547,7.021842956542969,-46.6331787109375,47.46928405761719,-20.012039184570312,69.49331665039062,0.32090919820612684,0.0070573795504017475,-0.007135631515045591
13.041877624999984,-0.008894957602024078,-0.005273059010505676,0.005273591727018356,-0.0092315673828125,-0.006561279296875,-0.9939422607421875,18.411449432373047,6.994384765625,-46.56304931640625,47.59913635253906,-20.291290283203125,69.74702453613281,0.320854743178018,0.007062953839924691,-0.007151620299345977
13.055471084000004,-0.008894957602024078,-0.005273059010505676,0.005273591727018356,-0.0092315673828125,-0.006561279296875,-0.9939422607421875,18.330303192138672,6.906246185302734,-46.57963562011719,47.31340026855469,-20.111892700195312,69.61320495605469,0.32096859631494984,0.007066131810098098,-0.007154283311149097
13.213694874999987,-0.008198541589081287,-0.003022954100742936,0.005446697119623423,-0.0096282958984375,-0.0062408447265625,-0.9925994873046875,18.33026123046875,6.973480224609375,-46.52281188964844,47.43898010253906,-20.102035522460938,69.51716613769531,0.3206349020731139,0.007050914274076348,-0.007085134550569549
13.219167459000005,-0.008198541589081287,-0.003022954100742936,0.005446697119623423,-0.0089111328125,-0.006439208984375,-0.994415283203125,18.40884017944336,7.064664840698242,-46.7559814453125,47.52789306640625,-20.075241088867188,69.45249938964844,0.3204530822380869,0.007030074911802652,-0.007009236087681349
13.239428666999999,-0.0089993542060256,-0.0029236183036118746,0.0057042245753109455,-0.0089111328125,-0.006439208984375,-0.994415283203125,18.420230865478516,6.888759613037109,-46.51057434082031,47.477508544921875,-20.150039672851562,69.91471862792969,0.3203508383664561,0.006951376836846583,-0.007021382370104542
13.32966266699998,-0.010371680371463299,-0.004828843753784895,0.003356115659698844,-0.008697509765625,-0.0064239501953125,-0.993255615234375,18.355430603027344,7.014736175537109,-46.58549499511719,47.35572814941406,-19.96380615234375,69.50440979003906,0.3200206058161296,0.0069436911691549245,-0.006998022554478223
13.487127458999993,-0.010371680371463299,-0.004828843753784895,0.003356115659698844,-0.008697509765625,-0.0064239501953125,-0.993255615234375,18.305423736572266,7.047037124633789,-46.61079406738281,47.49797058105469,-19.938278198242188,69.51866149902344,0.31958010756419536,0.00696600046499243,-0.007019128086853397
13.492485916999982,-0.00980362854897976,-0.0034416031558066607,0.0028091021813452244,-0.0090789794921875,-0.005706787109375,-0.99456787109375,18.43716049194336,6.87263298034668,-46.730491638183594,47.49177551269531,-20.085174560546875,69.92047119140625,0.31910288680300136,0.006915301945229156,-0.006994776302106958
13.492769416999977,-0.00980362854897976,-0.0034416031558066607,0.0028091021813452244,-0.0089874267578125,-0.006378173828125,-0.993896484375,18.475139617919922,6.966642379760742,-46.63085174560547,47.49787902832031,-20.066116333007812,69.59048461914062,0.31904306766723817,0.006882706512593313,-0.007012256765848393
13.52988208399998,-0.009108010679483414,-0.008860070258378983,0.005480785388499498,-0.0089874267578125,-0.006378173828125,-0.993896484375,18.422714233398438,7.027231216430664,-46.47297668457031,47.54547119140625,-20.2071533203125,69.66546630859375,0.31901058115370223,0.006851450061584425,-0.007045273013156153
13.669893416999997,-0.009108010679483414,-0.008860070258378983,0.005480785388499498,-0.0086822509765625,-0.0056915283203125,-0.994781494140625,18.44656753540039,7.023975372314453,-46.60924530029297,47.5701904296875,-19.933624267578125,69.58879089355469,0.3188215544033584,0.006837090936576772,-0.007058473587452942
13.670359999999988,-0.008234760724008083,-0.0028972530271857977,0.0020730046089738607,-0.0086822509765625,-0.0056915283203125,-0.994781494140625,18.40874481201172,7.130834579467773,-46.60761260986328,47.536468505859375,-20.160507202148438,69.63201904296875,0.3186835576103718,0.006856638558876067,-0.007062473944100572
13.691459334000001,-0.009678726084530354,-0.0076158419251441956,0.004341751337051392,-0.008819580078125,-0.00689697265625,-0.9928131103515625,18.347347259521484,7.172521591186523,-46.475502014160156,47.603424072265625,-20.012435913085938,69.46923828125,0.3183622745351863,0.006841444530084879,-0.007064934020916089
13.739593791999994,-0.009678726084530354,-0.0076158419251441956,0.004341751337051392,-0.008819580078125,-0.00689697265625,-0.9928131103515625,18.440311431884766,7.010232925415039,-46.76313018798828,47.71202087402344,-19.841293334960938,69.89111328125,0.3179595384980293,0.006864052419519225,-0.0070578533108304285
13.806061041999982,-0.007502657361328602,-0.004191549029201269,0.003949468024075031,-0.0084075927734375,-0.00579833984375,-0.9934539794921875,18.45315170288086,6.934482574462891,-46.811187744140625,47.597259521484375,-19.940277099609375,69.68832397460938,0.31784132948812077,0.006867404213769954,-0.007066428472166024
13.856346791999982,-0.007502657361328602,-0.004191549029201269,0.003949468024075031,-0.0084075927734375,-0.00579833984375,-0.9934539794921875,18.438091278076172,7.143243789672852,-46.34892272949219,47.60108947753906,-19.97222900390625,69.51472473144531,0.31759663177457126,0.006857709030974539,-0.007097125575581107
13.90603595899998,-0.0065345983020961285,-0.004677043296396732,0.004870389122515917,-0.0086212158203125,-0.0062255859375,-0.9933319091796875,18.571197509765625,6.995111465454102,-46.56208038330078,47.69892883300781,-20.187225341796875,69.77615356445312,0.3174967415793364,0.00686489659250666,-0.0071555863649839365
13.985202916999981,-0.0065345983020961285,-0.004677043296396732,0.004870389122515917,-0.0089111328125,-0.0064239501953125,-0.993927001953125,18.431217193603516,6.98785400390625,-46.69751739501953,47.623748779296875,-20.097305297851562,69.60031127929688,0.31778493050291073,0.006908210931667895,-0.007115535510976893
14.03223216699999,-0.009217200800776482,-0.007636880502104759,0.0073468624614179134,-0.0089111328125,-0.0064239501953125,-0.993927001953125,18.52475357055664,7.04469108581543,-46.66143035888672,47.69801330566406,-20.141067504882812,69.54742431640625,0.3175769802776301,0.0068781232506105894,-0.007132839722556611
14.089341083999983,-0.009217200800776482,-0.007636880502104759,0.0073468624614179134,-0.0092010498046875,-0.006195068359375,-0.994232177734375,18.469257354736328,7.081844329833984,-46.62303161621094,47.414703369140625,-19.932540893554688,69.60025024414062,0.3175030885028964,0.006903504980064281,-0.007196539293319382
14.1400845,-0.006472812965512276,-0.005593170877546072,0.0059420447796583176,-0.0092010498046875,-0.006195068359375,-0.994232177734375,18.38458251953125,7.132585525512695,-46.63818359375,47.55384826660156,-20.051773071289062,69.72779846191406,0.317350805194746,0.006915676204486208,-0.007163051748161489
14.206388666999999,-0.009152219630777836,-0.005052815657109022,0.002123604528605938,-0.0094146728515625,-0.00640869140625,-0.99383544921875,18.384632110595703,6.896360397338867,-46.7315673828125,47.56086730957031,-20.217529296875,69.85104370117188,0.31746011385248324,0.006917013711852391,-0.0071560893577624195
14.256676749999997,-0.009152219630777836,-0.005052815657109022,0.002123604528605938,-0.0094146728515625,-0.00640869140625,-0.99383544921875,18.430606842041016,6.843496322631836,-46.50482940673828,47.552337646484375,-20.155227661132812,69.4990234375,0.31751974232086133,0.006895280633096972,-0.007141435193879087
14.306199499999991,-0.008016381412744522,-0.00512738386169076,0.004228300880640745,-0.007965087890625,-0.0066375732421875,-0.9939422607421875,18.28152847290039,6.856666564941406,-46.71710205078125,47.498565673828125,-20.15655517578125,69.81826782226562,0.3177182906495081,0.006867174151417543,-0.0071409094442459005
14.386414624999986,-0.008016381412744522,-0.00512738386169076,0.004228300880640745,-0.0091400146484375,-0.0061187744140625,-0.993194580078125,18.39156723022461,6.968358993530273,-46.80187225341797,47.33857727050781,-19.982421875,69.4075927734375,0.3176701816170558,0.00682989145448886,-0.007187729203233865
14.439986916999999,-0.008171376772224903,-0.0038629150949418545,0.0036067189648747444,-0.0091400146484375,-0.0061187744140625,-0.993194580078125,18.279541015625,7.066740036010742,-46.52842712402344,47.556121826171875,-20.177902221679688,69.65620422363281,0.31768336779690654,0.00684550512546899,-0.0071896350710509
14.509665584000004,-0.009393502026796341,-0.0044083306565880775,0.002180063631385565,-0.0087890625,-0.005706787109375,-0.993927001953125,18.333431243896484,7.054828643798828,-46.85023498535156,47.510284423828125,-20.103927612304688,70.113037109375,0.31748587731979455,0.006821618882036794,-0.007195322992177147
14.556492458999998,-0.009393502026796341,-0.0044083306565880775,0.002180063631385565,-0.0087890625,-0.005706787109375,-0.993927001953125,18.418025970458984,7.055360794067383,-46.508026123046875,47.48554992675781,-19.990127563476562,69.54693603515625,0.31727190365753277,0.006818427960618255,-0.007211471462321136
14.623735708999988,-0.00914422981441021,-0.006750847212970257,0.005652825813740492,-0.008758544921875,-0.00506591796875,-0.9937286376953125,18.41006088256836,6.908323287963867,-46.54936218261719,47.640380859375,-20.2762451171875,69.71543884277344,0.3171445362110533,0.006772877256095533,-0.007215637997831733
14.68960762499998,-0.00914422981441021,-0.006750847212970257,0.005652825813740492,-0.008880615234375,-0.0063323974609375,-0.99420166015625,18.491222381591797,6.948341369628906,-46.56803894042969,47.4625244140625,-20.15594482421875,69.33683776855469,0.3172096683584476,0.006771995143585392,-0.007259246205588266
14.739911958999983,-0.008741559460759163,-0.0049196574836969376,0.00444002216681838,-0.008880615234375,-0.0063323974609375,-0.99420166015625,18.36627197265625,6.96641731262207,-46.505714416503906,47.47377014160156,-20.263519287109375,69.49229431152344,0.31751100863522186,0.006802819538687009,-0.007273570518940183
14.806391916999985,-0.009531985968351364,-0.007514641620218754,0.00481206551194191,-0.0091552734375,-0.0054168701171875,-0.993988037109375,18.43170166015625,6.865472793579102,-46.70130920410156,47.58918762207031,-20.417205810546875,69.53587341308594,0.3177785701271583,0.00679728755038369,-0.00724642452391893
14.856707749999998,-0.009531985968351364,-0.007514641620218754,0.00481206551194191,-0.0091552734375,-0.0054168701171875,-0.993988037109375,18.450416564941406,6.82050895690918,-46.60474395751953,47.56056213378906,-20.064926147460938,69.59382629394531,0.31822924076730214,0.006802578927066104,-0.0072518295526606425
14.923677874999981,-0.00692049041390419,-0.006676544900983572,0.004459995776414871,-0.0086212158203125,-0.0059661865234375,-0.9937591552734375,18.44775390625,7.046421051025391,-46.61045837402344,47.72834777832031,-20.293807983398438,69.58387756347656,0.31816203805504434,0.006817255901436543,-0.00726806189667792
14.994103499999994,-0.00692049041390419,-0.006676544900983572,0.004459995776414871,-0.0091094970703125,-0.0054168701171875,-0.9932098388671875,18.469127655029297,6.911167144775391,-46.82745361328125,47.52787780761719,-20.070175170898438,69.32313537597656,0.31876346350681967,0.006834527701001645,-0.007271671879173073
15.057082749999978,-0.009152752347290516,-0.006166549399495125,0.00782543234527111,-0.0091094970703125,-0.0054168701171875,-0.9932098388671875,18.380767822265625,6.88311767578125,-46.91754913330078,47.510467529296875,-20.1959228515625,69.30274963378906,0.3187344328525217,0.006868048713043885,-0.007255154060421884
15.123922792000002,-0.00863503385335207,-0.0034884747583419085,0.003363838652148843,-0.00921630859375,-0.0066986083984375,-0.9935302734375,18.514171600341797,6.872148513793945,-46.67207336425781,47.59808349609375,-20.27679443359375,69.29658508300781,0.3188718225668076,0.006871822730934401,-0.007283850777614853
15.202914666999988,-0.009050486609339714,-0.002989398315548897,0.003287938656285405,-0.0077362060546875,-0.00604248046875,-0.993804931640625,18.36823272705078,7.001518249511719,-46.77082061767578,47.479644775390625,-20.246002197265625,69.98793029785156,0.3190495759472897,0.0068670730493596115,-0.0073184253655038745
15.257177041999995,-0.009050486609339714,-0.002989398315548897,0.003287938656285405,-0.0077362060546875,-0.00604248046875,-0.993804931640625,18.48113250732422,6.962970733642578,-46.883941650390625,47.39759826660156,-20.093658447265625,69.50741577148438,0.31912373193476135,0.006847122727618629,-0.007280062332812837
15.323679749999997,-0.012205000966787338,-0.005008607171475887,0.0034112429711967707,-0.0091094970703125,-0.0064697265625,-0.99298095703125,18.481475830078125,7.106870651245117,-46.55809020996094,47.537933349609375,-20.064834594726562,69.34291076660156,0.3188783664085904,0.006874406260450534,-0.007280561710959038
15.373862833999993,-0.012205000966787338,-0.005008607171475887,0.0034112429711967707,-0.0091094970703125,-0.0064697265625,-0.99298095703125,18.423282623291016,6.905153274536133,-46.647422790527344,47.52680969238281,-20.0772705078125,69.38569641113281,0.3187537581254012,0.006867589022220711,-0.0072992130783291745
15.44092329199998,-0.005973204039037228,-0.006229133810847998,0.003257844829931855,-0.008453369140625,-0.0066986083984375,-0.993499755859375,18.512073516845703,6.97929573059082,-46.600440979003906,47.57734680175781,-19.95794677734375,69.49757385253906,0.31873642019813586,0.0068930328525885435,-0.007270486108056303
15.492012875,-0.005973204039037228,-0.006229133810847998,0.003257844829931855,-0.008697509765625,-0.0059051513671875,-0.9937744140625,18.475440979003906,7.003915786743164,-46.72755432128906,47.49371337890625,-20.248550415039062,69.46444702148438,0.3187735075955299,0.006913883987201506,-0.007272487921587036
15.556335916999984,-0.005892243701964617,-0.00239258399233222,0.006295446306467056,-0.008697509765625,-0.0059051513671875,-0.9937744140625,18.39828109741211,6.922510147094727,-46.87158203125,47.444671630859375,-20.14923095703125,69.32966613769531,0.31886156141045985,0.006899615816574962,-0.007267690490813326
15.623687208999996,-0.00885074958205223,-0.0057433731853961945,0.003610979998484254,-0.0073394775390625,-0.00567626953125,-0.9940185546875,18.427310943603516,6.89552116394043,-46.580352783203125,47.525115966796875,-20.024887084960938,69.33929443359375,0.31900027230948236,0.006873002960521947,-0.00727449030318448
15.67400920899999,-0.00885074958205223,-0.0057433731853961945,0.003610979998484254,-0.0073394775390625,-0.00567626953125,-0.9940185546875,18.3853759765625,6.991765975952148,-46.73076629638672,47.70361328125,-20.181716918945312,69.98609924316406,0.3189883566784888,0.006831535076037814,-0.007281559560213027
15.740433459000002,-0.010002033784985542,-0.004803011193871498,0.004357730504125357,-0.0093994140625,-0.0064849853515625,-0.9938201904296875,18.494400024414062,6.854557037353516,-46.71894836425781,47.59730529785156,-20.039520263671875,69.44136047363281,0.3190756640365468,0.006848973367699638,-0.007279943271732761
15.794308708999978,-0.010002033784985542,-0.004803011193871498,0.004357730504125357,-0.0088348388671875,-0.0064239501953125,-0.9947509765625,18.551166534423828,7.019886016845703,-46.856842041015625,47.558349609375,-20.04266357421875,69.14935302734375,0.3190013075350315,0.006828673066736331,-0.007272096512871354
15.85753383399998,-0.00896926037967205,-0.003762780223041773,0.0029470541048794985,-0.0088348388671875,-0.0064239501953125,-0.9947509765625,18.492664337158203,6.825407028198242,-46.796424865722656,47.722198486328125,-20.314285278320312,69.35491943359375,0.31931580856194736,0.006779162043126231,-0.007250848153687544
15.908574541999997,-0.009186307899653912,-0.005607818253338337,0.0031784826423972845,-0.0089569091796875,-0.0054779052734375,-0.99359130859375,18.471111297607422,6.962804794311523,-46.64036560058594,47.639739990234375,-20.145233154296875,69.47616577148438,0.31951340656565436,0.0067921612018317975,-0.007243947013595166
15.974147916999982,-0.009186307899653912,-0.005607818253338337,0.0031784826423972845,-0.0089569091796875,-0.0054779052734375,-0.99359130859375,18.41427993774414,7.048086166381836,-46.64744567871094,47.60835266113281,-19.975845336914062,69.32279968261719,0.31954900160629995,0.006811048363509546,-0.007235879801743579
16.041280374999985,-0.007355384528636932,-0.0036677054595202208,0.0036514601670205593,-0.0085601806640625,-0.005096435546875,-0.993896484375,18.51656723022461,7.053382873535156,-46.556175231933594,47.67535400390625,-20.07232666015625,69.45895385742188,0.319203039524873,0.006820145541202549,-0.007203175647933945
16.106432374999997,-0.008223042823374271,-0.006680805701762438,0.004601676017045975,-0.0093994140625,-0.00616455078125,-0.9943084716796875,18.523799896240234,6.998777389526367,-46.33558654785156,47.60340881347656,-20.165496826171875,70.04437255859375,0.3190152961666483,0.006809281471914127,-0.007244813342080805
16.157842291999998,-0.008223042823374271,-0.006680805701762438,0.004601676017045975,-0.0093994140625,-0.00616455078125,-0.9943084716796875,18.59787368774414,7.013761520385742,-46.593719482421875,47.65983581542969,-20.211166381835938,69.21762084960938,0.3190815945245367,0.006820799182966081,-0.007277447574520357
16.224511708999984,-0.009062470868229866,-0.009080846793949604,0.0030093719251453876,-0.0086822509765625,-0.006103515625,-0.9940643310546875,18.46627426147461,6.994771957397461,-46.63117980957031,47.577117919921875,-19.974411010742188,69.78871154785156,0.3191326076949183,0.006819116301164808,-0.007321518306052085
16.300379792,-0.009062470868229866,-0.009080846793949604,0.0030093719251453876,-0.0084075927734375,-0.0058135986328125,-0.993988037109375,18.610240936279297,7.003007888793945,-46.779815673828125,47.48509216308594,-20.059906005859375,69.45626831054688,0.3188521007655171,0.006870437720617314,-0.007320869628259398
16.35738408399999,-0.00911280419677496,-0.0023997745011001825,0.005818740464746952,-0.0084075927734375,-0.0058135986328125,-0.993988037109375,18.550182342529297,7.022697448730469,-46.55162811279297,47.581390380859375,-20.193191528320312,69.4403076171875,0.3188198432833533,0.006870510941102522,-0.007329801929161443
16.424346208999992,-0.009733054786920547,-0.006406500469893217,0.004054929129779339,-0.0091400146484375,-0.0060577392578125,-0.993682861328125,18.53512191772461,6.996301651000977,-46.56800079345703,47.63154602050781,-20.243331909179688,69.48713684082031,0.3188881318508973,0.006899508846156351,-0.007318332367067275
16.474612917,-0.009733054786920547,-0.006406500469893217,0.004054929129779339,-0.0091400146484375,-0.0060577392578125,-0.993682861328125,18.535289764404297,6.82072639465332,-46.5982666015625,47.60664367675781,-20.196884155273438,69.45866394042969,0.3189416076857037,0.006921241322566404,-0.0073368868746145535
16.543601333999987,-0.009739446453750134,-0.0038213697262108326,0.006215285509824753,-0.0089569091796875,-0.0053558349609375,-0.99383544921875,18.522491455078125,6.953214645385742,-46.591163635253906,47.56828308105469,-20.228302001953125,69.81939697265625,0.3190614613164443,0.006959331047839479,-0.007362064152145229
16.60777033399998,-0.008730906993150711,-0.007577226031571627,0.004764395300298929,-0.0087890625,-0.005462646484375,-0.9931640625,18.582698822021484,7.035297393798828,-46.58501434326172,47.44464111328125,-19.930084228515625,69.53913879394531,0.3190711760827981,0.00692540081401216,-0.007369404578295731
16.65757395899999,-0.008730906993150711,-0.007577226031571627,0.004764395300298929,-0.0087890625,-0.005462646484375,-0.9931640625,18.594337463378906,6.963319778442383,-46.74317932128906,47.607025146484375,-20.298538208007812,69.28170776367188,0.31916841508588367,0.006948065506969824,-0.007405686500719493
16.724444500000004,-0.009548763744533062,-0.006755640730261803,0.005822469014674425,-0.0086822509765625,-0.0058441162109375,-0.9936065673828125,18.525806427001953,6.911884307861328,-46.462799072265625,47.657806396484375,-20.3096923828125,69.73263549804688,0.3193402393184085,0.006971768733490983,-0.0073799308656514045
16.797901166999992,-0.009548763744533062,-0.006755640730261803,0.005822469014674425,-0.0089569091796875,-0.0056304931640625,-0.9947509765625,18.463504791259766,6.959129333496094,-46.454383850097656,47.62245178222656,-20.2960205078125,69.79180908203125,0.3198953265675704,0.006969777088242555,-0.007410876207725572
16.844667249999986,-0.01034771278500557,-0.004885036498308182,0.003133208956569433,-0.0089569091796875,-0.0056304931640625,-0.9947509765625,18.582870483398438,6.859251022338867,-46.52210998535156,47.55809020996094,-20.21026611328125,69.99839782714844,0.32002950156580956,0.006958580856103972,-0.007381278224442614
16.90774479199999,-0.010037187486886978,-0.007740477565675974,0.0037199032958596945,-0.009063720703125,-0.00640869140625,-0.9935455322265625,18.492931365966797,6.927938461303711,-46.470703125,47.455718994140625,-20.160736083984375,69.77140808105469,0.3200734121677326,0.006966114419369186,-0.00740165125800762
16.974971291999992,-0.010037187486886978,-0.007740477565675974,0.0037199032958596945,-0.009063720703125,-0.00640869140625,-0.9935455322265625,18.609119415283203,6.8948822021484375,-46.645668029785156,47.552825927734375,-20.239822387695312,69.63275146484375,0.32016540774994917,0.006987830862093486,-0.007405981968462311
17.024744624999983,-0.008716526441276073,-0.007198790553957224,0.005023254547268152,-0.0091094970703125,-0.006561279296875,-0.9932708740234375,18.567169189453125,6.964994430541992,-46.376869201660156,47.58160400390625,-20.44482421875,69.95437622070312,0.3200744168023239,0.00703755589574317,-0.007395682171291876
17.099382792,-0.008716526441276073,-0.007198790553957224,0.005023254547268152,-0.0085906982421875,-0.0053863525390625,-0.993316650390625,18.414764404296875,7.075481414794922,-46.4013671875,47.73097229003906,-20.137191772460938,69.40470886230469,0.32000620253284384,0.007014639506640219,-0.0074573485125334115
17.158420708999984,-0.007336475886404514,-0.0044016726315021515,0.0046477485448122025,-0.0085906982421875,-0.0053863525390625,-0.993316650390625,18.65957260131836,6.987499237060547,-46.559051513671875,47.63323974609375,-20.2088623046875,69.70610046386719,0.31993662146477236,0.006984596085577295,-0.007426315730910153
17.211224416999983,-0.00974716991186142,-0.0025305356830358505,0.006115150637924671,-0.0087890625,-0.0059967041015625,-0.9938812255859375,18.52246856689453,7.007846832275391,-46.471092224121094,47.5789794921875,-20.198959350585938,69.99424743652344,0.31990294959588556,0.006952770234095351,-0.00743948420701916
17.274438541999984,-0.00974716991186142,-0.0025305356830358505,0.006115150637924671,-0.0087890625,-0.0059967041015625,-0.9938812255859375,18.60124969482422,7.077877044677734,-46.552345275878906,47.52946472167969,-20.201263427734375,69.82203674316406,0.3197570814425829,0.006942375027412994,-0.007455641075685051
17.324728833999984,-0.011186608113348484,-0.004867726005613804,0.005690376274287701,-0.008941650390625,-0.0059814453125,-0.9931182861328125,18.5198974609375,7.17494010925293,-46.417823791503906,47.587890625,-20.18817138671875,69.79116821289062,0.31948645369148687,0.006955874665887429,-0.007481671036929866
17.412011167000003,-0.008668589405715466,-0.0046301716938614845,0.004293282050639391,-0.0086517333984375,-0.0067901611328125,-0.9949493408203125,18.408748626708984,7.093534469604492,-46.5858154296875,47.489349365234375,-20.151641845703125,69.63316345214844,0.3192983389238562,0.006984334698864886,-0.007469023433689715
17.475031874999985,-0.008668589405715466,-0.0046301716938614845,0.004293282050639391,-0.0086517333984375,-0.0067901611328125,-0.9949493408203125,18.387279510498047,7.076410293579102,-46.537628173828125,47.64154052734375,-20.242050170898438,69.98016357421875,0.31923714699186,0.0069899730240560835,-0.007507587714757244
17.546691834,-0.010362093336880207,-0.005803294479846954,0.005642971955239773,-0.009063720703125,-0.0057373046875,-0.9951629638671875,18.51162338256836,7.222478866577148,-46.750892639160156,47.412322998046875,-20.008056640625,69.81161499023438,0.31857084904533195,0.007027605388505264,-0.007500466794424215
17.597942749999987,-0.010362093336880207,-0.005803294479846954,0.005642971955239773,-0.009063720703125,-0.0057373046875,-0.9951629638671875,18.37759780883789,7.191196441650391,-46.59380340576172,47.491729736328125,-20.065673828125,69.93930053710938,0.31808180876753783,0.007017893440535987,-0.007497639683207386
17.655967500000003,-0.008188953623175621,-0.005250155925750732,0.004792624618858099,-0.008453369140625,-0.006195068359375,-0.99395751953125,18.544921875,7.344453811645508,-46.600921630859375,47.510406494140625,-19.850921630859375,69.59646606445312,0.3175048495045619,0.007023499048059372,-0.007486408997344449
17.710963958999997,-0.008080297149717808,-0.006344981025904417,0.005692773032933474,-0.008880615234375,-0.0059356689453125,-0.9931182861328125,18.36899185180664,7.094150543212891,-46.705955505371094,47.35809326171875,-20.0494384765625,69.57699584960938,0.31691786220396123,0.00702415009988987,-0.007470871651312334
17.774815083999982,-0.008080297149717808,-0.006344981025904417,0.005692773032933474,-0.008880615234375,-0.0059356689453125,-0.9931182861328125,18.50939178466797,7.165721893310547,-46.696571350097656,47.52940368652344,-20.227630615234375,69.67491149902344,0.3167358336181014,0.007040717808866569,-0.007466937417254731
17.859658291999978,-0.008169246837496758,-0.005044027231633663,0.00458756135776639,-0.009124755859375,-0.005950927734375,-0.9938201904296875,18.445964813232422,6.950666427612305,-46.85917663574219,47.50823974609375,-20.3238525390625,69.54541015625,0.3167158881146454,0.007062762017819405,-0.007482737484571323
17.907136874999964,-0.008169246837496758,-0.005044027231633663,0.00458756135776639,-0.00885009765625,-0.00531005859375,-0.9935760498046875,18.386791229248047,7.120361328125,-46.92059326171875,47.518463134765625,-20.185882568359375,69.73606872558594,0.31671908877494015,0.007064535829771439,-0.0075012519940429
17.958342041999998,-0.009016931056976318,-0.004580636974424124,0.003991545643657446,-0.00885009765625,-0.00531005859375,-0.9935760498046875,18.433914184570312,7.111915588378906,-46.55621337890625,47.60987854003906,-20.297271728515625,69.62881469726562,0.3165675071227694,0.007096379663427551,-0.0075307285346643904
18.007906458999997,-0.009016931056976318,-0.004580636974424124,0.003991545643657446,-0.0091552734375,-0.0058135986328125,-0.9935302734375,18.502498626708984,6.901987075805664,-46.71946716308594,47.54191589355469,-20.06292724609375,69.6949462890625,0.31673797605335224,0.007110645242645144,-0.007558448465356866
18.074712209000012,-0.007715976797044277,-0.00532658863812685,0.0027624969370663166,-0.0091552734375,-0.0058135986328125,-0.9935302734375,18.440555572509766,6.900506973266602,-46.61608123779297,47.50675964355469,-20.27947998046875,69.61491394042969,0.3168090968870865,0.007127551284370704,-0.007563443672946341
18.12484308399999,-0.008040083572268486,-0.006367618218064308,0.004273840691894293,-0.008819580078125,-0.0055999755859375,-0.9948272705078125,18.53571319580078,6.843191146850586,-46.633575439453125,47.61979675292969,-20.139923095703125,69.73876953125,0.3170187743900432,0.007140300031138636,-0.007522682545284746
18.208525999999978,-0.008040083572268486,-0.006367618218064308,0.004273840691894293,-0.0084991455078125,-0.006622314453125,-0.993896484375,18.503337860107422,6.909101486206055,-46.77715301513672,47.54620361328125,-20.18896484375,69.69853210449219,0.3175065871557952,0.007152421162282656,-0.007519600378980127
18.256053208999987,-0.008628908544778824,-0.0020415792241692543,0.006251237820833921,-0.0084991455078125,-0.006622314453125,-0.993896484375,18.341876983642578,7.043830871582031,-46.5892333984375,47.56379699707031,-20.227218627929688,69.6890869140625,0.3175716647030021,0.00713711525534564,-0.007502659446189146
18.315575833999986,-0.008628908544778824,-0.0020415792241692543,0.006251237820833921,-0.008575439453125,-0.0059967041015625,-0.99371337890625,18.350971221923828,7.046085357666016,-46.817909240722656,47.37165832519531,-20.088790893554688,69.52085876464844,0.317541899840232,0.007143909170026108,-0.007503897222336852
18.358454667000018,-0.009184177033603191,-0.0033595776185393333,0.00395692465826869,-0.008575439453125,-0.0059967041015625,-0.99371337890625,18.37375259399414,6.966091156005859,-46.81231689453125,47.534423828125,-20.072021484375,69.56986999511719,0.31757771925321465,0.00713205877950563,-0.007498109799108702
18.40914437500001,-0.009184177033603191,-0.0033595776185393333,0.00395692465826869,-0.00909423828125,-0.0060272216796875,-0.9941253662109375,18.508731842041016,6.902790069580078,-46.83540344238281,47.59245300292969,-20.262451171875,69.50651550292969,0.3176606215574191,0.007104527992380727,-0.00746385902667392
18.47570029199997,-0.00800546258687973,-0.00410473020747304,0.004113518632948399,-0.00909423828125,-0.0060272216796875,-0.9941253662109375,18.414836883544922,6.939447402954102,-46.82403564453125,47.541595458984375,-20.259170532226562,69.48454284667969,0.31787143870224016,0.00712169132303066,-0.007503491553226578
18.54232533399997,-0.008216651156544685,-0.004562261048704386,0.00301656243391335,-0.0090179443359375,-0.00531005859375,-0.9938201904296875,18.477977752685547,6.839265823364258,-46.764122009277344,47.49066162109375,-20.15179443359375,69.56956481933594,0.31800115640313115,0.007121165408669134,-0.007486436606302498
18.592100708999993,-0.008216651156544685,-0.004562261048704386,0.00301656243391335,-0.0090179443359375,-0.00531005859375,-0.9938201904296875,18.408714294433594,6.939075469970703,-46.76416778564453,47.52168273925781,-20.208587646484375,69.66667175292969,0.3182214228810832,0.007109154886197955,-0.0074867502909426184
18.642088041999983,-0.007918376475572586,-0.003954261541366577,0.006021939683705568,-0.008758544921875,-0.006011962890625,-0.9938812255859375,18.405643463134766,6.911092758178711,-46.81096649169922,47.451934814453125,-20.195770263671875,69.497802734375,0.31830724023144097,0.007093307887230012,-0.007469064210752906
18.71245570900001,-0.007918376475572586,-0.003954261541366577,0.006021939683705568,-0.0086517333984375,-0.00640869140625,-0.99285888671875,18.52123260498047,6.953943252563477,-46.70946502685547,47.55577087402344,-20.065811157226562,69.5025634765625,0.3181525859385299,0.0070906432465534085,-0.007518402740583695
18.763118333999984,-0.010361560620367527,-0.005821936298161745,0.004863464739173651,-0.0086517333984375,-0.00640869140625,-0.99285888671875,18.402732849121094,7.013551712036133,-46.7803955078125,47.597320556640625,-19.962005615234375,69.56353759765625,0.31806594334380583,0.007118389526863742,-0.007529540799289564
18.825780750000007,-0.009471531957387924,-0.0041643851436674595,0.0051779840141534805,-0.0094757080078125,-0.00634765625,-0.9933624267578125,18.392555236816406,6.958076477050781,-46.76512145996094,47.44775390625,-19.80755615234375,69.50335693359375,0.31781898137505166,0.007114563316185512,-0.007575019716079836
18.874870958999992,-0.009471531957387924,-0.0041643851436674595,0.0051779840141534805,-0.0094757080078125,-0.00634765625,-0.9933624267578125,18.313488006591797,7.2292022705078125,-46.7296142578125,47.49180603027344,-20.052276611328125,69.48509216308594,0.31740978542213943,0.007070320402549507,-0.007550643992899506
18.942867334,-0.007454453967511654,-0.007467503659427166,0.004114051349461079,-0.00927734375,-0.006195068359375,-0.9932708740234375,18.37133026123047,6.857402801513672,-46.86967468261719,47.51953125,-20.019882202148438,69.72499084472656,0.31728864415238783,0.007073287436747168,-0.007553470351811179
19.013246458999987,-0.007454453967511654,-0.007467503659427166,0.004114051349461079,-0.008819580078125,-0.0062255859375,-0.994049072265625,18.442840576171875,7.053043365478516,-46.73004913330078,47.58506774902344,-20.228927612304688,69.51025390625,0.31744962871472604,0.007009807049837561,-0.007590780126645526
19.075912624999972,-0.008823319338262081,-0.005419799126684666,0.00555135915055871,-0.008819580078125,-0.0062255859375,-0.994049072265625,18.445140838623047,7.047098159790039,-46.78193664550781,47.621337890625,-20.061508178710938,69.51919555664062,0.3174545804720041,0.007007136469810121,-0.007610221285929235
19.142705334,-0.010104299522936344,-0.004081827122718096,0.0027355989441275597,-0.0085906982421875,-0.0070343017578125,-0.994781494140625,18.42662811279297,6.931541442871094,-46.607826232910156,47.352294921875,-20.04742431640625,69.75831604003906,0.3174536049002997,0.007029293507967832,-0.007627403760129618
19.222122041999995,-0.006829410325735807,-0.005630987696349621,0.006487460341304541,-0.0087432861328125,-0.00677490234375,-0.99407958984375,18.440685272216797,6.9395751953125,-46.686058044433594,47.567169189453125,-20.147109985351562,69.48968505859375,0.3171120332828112,0.00704036968280912,-0.007635144581439908
19.27565370900001,-0.006829410325735807,-0.005630987696349621,0.006487460341304541,-0.0087432861328125,-0.00677490234375,-0.99407958984375,18.28223419189453,7.007598876953125,-46.63507843017578,47.627044677734375,-20.039794921875,69.51945495605469,0.31724171257332795,0.0070371306629181925,-0.0076210854393797935
19.32549079200001,-0.00884968414902687,-0.006687197368592024,0.005376656074076891,-0.0090789794921875,-0.0055389404296875,-0.9931182861328125,18.322650909423828,7.062532424926758,-46.649574279785156,47.63807678222656,-20.244003295898438,69.58256530761719,0.3171103031758657,0.007039158075237685,-0.007602763682198826
19.39265716700001,-0.00884968414902687,-0.006687197368592024,0.005376656074076891,-0.0090789794921875,-0.0055389404296875,-0.9931182861328125,18.441349029541016,7.137241363525391,-46.524169921875,47.73326110839844,-20.182601928710938,69.42652893066406,0.31705653838155395,0.007049601902092793,-0.0076430947427659456
19.459473959000007,-0.01152616087347269,-0.005642705596983433,0.0024506407789885998,-0.0080413818359375,-0.0062713623046875,-0.9934234619140625,18.31157684326172,6.946689605712891,-46.47370910644531,47.54034423828125,-20.167984008789062,69.50021362304688,0.31708410262700604,0.007038049087965367,-0.007663087714195618
19.514909500000016,-0.01152616087347269,-0.005642705596983433,0.0024506407789885998,-0.008941650390625,-0.0062713623046875,-0.993865966796875,18.438644409179688,6.940238952636719,-46.894813537597656,47.58482360839844,-20.258544921875,69.53097534179688,0.31714934965145397,0.007036536192093805,-0.007639407939255073
19.57623375,-0.00842677429318428,-0.0026583673898130655,0.0046693203039467335,-0.008941650390625,-0.0062713623046875,-0.993865966796875,18.418365478515625,7.020627975463867,-46.592857360839844,47.706024169921875,-20.099761962890625,69.43901062011719,0.3171843941237164,0.007055457120699157,-0.007530485564584731
19.625225041999983,-0.009308813139796257,-0.0038400120101869106,0.00487092137336731,-0.00830078125,-0.0060577392578125,-0.9932861328125,18.435317993164062,7.091144561767578,-46.593727111816406,47.56733703613281,-20.045272827148438,69.75651550292969,0.31708157163259426,0.007024016210795409,-0.007464566084707511
19.693171792000015,-0.009308813139796257,-0.0038400120101869106,0.00487092137336731,-0.00830078125,-0.0060577392578125,-0.9932861328125,18.498703002929688,7.032079696655273,-46.62084197998047,47.56629943847656,-19.869140625,69.61402893066406,0.3170756522756717,0.007006186978456466,-0.0074988309916440045
19.763242125000005,-0.00837031565606594,-0.006363889668136835,0.0025949841365218163,-0.0079345703125,-0.00628662109375,-0.9940185546875,18.368698120117188,7.058467864990234,-46.736236572265625,47.60186767578125,-20.199798583984375,69.34974670410156,0.31673379305382626,0.0069998048671602794,-0.007608610966963722
19.816522666999987,-0.00837031565606594,-0.006363889668136835,0.0025949841365218163,-0.0082855224609375,-0.006805419921875,-0.9936981201171875,18.38458251953125,7.139141082763672,-46.783966064453125,47.58695983886719,-20.021484375,69.56686401367188,0.31663053091670823,0.007061361183707963,-0.007564674784995809
19.868767292,-0.005971073638647795,-0.005233644042164087,0.004571049474179745,-0.0082855224609375,-0.006805419921875,-0.9936981201171875,18.50946044921875,6.995662689208984,-46.639678955078125,47.66107177734375,-20.209197998046875,69.36854553222656,0.3166104093666328,0.00713737943355,-0.007564247304393342
19.926761874999983,-0.004406732507050037,-0.008400941267609596,0.0024088292848318815,-0.0095672607421875,-0.00628662109375,-0.9940032958984375,18.497882843017578,6.959300994873047,-46.84571838378906,47.570709228515625,-20.150436401367188,69.47319030761719,0.3167621931568319,0.007216052643393851,-0.007578064886237394
19.975939374999967,-0.004406732507050037,-0.008400941267609596,0.0024088292848318815,-0.0095672607421875,-0.00628662109375,-0.9940032958984375,18.511337280273438,6.908636093139648,-47.00044250488281,47.522369384765625,-20.154083251953125,69.46481323242188,0.31694657020232664,0.007375183047374011,-0.0076655108769608776
20.04330300000001,-0.009859289042651653,-0.011477159336209297,0.004712196998298168,-0.0095977783203125,-0.0063629150390625,-0.9930419921875,18.423484802246094,6.958644866943359,-46.94121551513672,47.56898498535156,-20.148880004882812,69.31483459472656,0.3169073446342227,0.007446907437667004,-0.008327262078619044
20.130352958999964,0.011691543273627758,-0.010006827302277088,0.00324799120426178,-0.010162353515625,-0.009490966796875,-0.9774017333984375,18.524715423583984,7.058525085449219,-46.59673309326172,47.46537780761719,-20.262725830078125,69.48731994628906,0.31675172836011484,0.008814408857982901,-0.00957226135079028
20.193514958999998,0.011691543273627758,-0.010006827302277088,0.00324799120426178,-0.010162353515625,-0.009490966796875,-0.9774017333984375,18.323177337646484,6.895441055297852,-46.56005859375,47.41790771484375,-20.043731689453125,69.36691284179688,0.3168341916754988,0.010038666442876343,-0.009993566989717583
20.243549375000015,0.006955377757549286,-0.021073859184980392,0.005711415316909552,-0.0110015869140625,-0.0099639892578125,-0.993927001953125,18.327320098876953,6.851230621337891,-46.693275451660156,47.32618713378906,-20.262847900390625,69.36259460449219,0.31668541505607795,0.010841743003303435,-0.010583908656077539
20.327055042000012,0.017109211534261703,-0.02731364592909813,0.0027198863681405783,-0.0160675048828125,-0.01031494140625,-0.994140625,18.215904235839844,6.666614532470703,-46.80675506591797,47.31048583984375,-20.306015014648438,69.04573059082031,0.3169784567029618,0.012479035198981558,-0.012748218156397094
20.376051708999995,0.017109211534261703,-0.02731364592909813,0.0027198863681405783,-0.0160675048828125,-0.01031494140625,-0.994140625,18.243183135986328,6.65876579284668,-46.562965393066406,47.38636779785156,-20.486831665039062,69.2882080078125,0.3168308208522342,0.015254709694972678,-0.015374405111355028
20.443528458999964,0.3553394675254822,-0.15906715393066406,0.05847262963652611,-0.0156402587890625,-0.0346832275390625,-1.01055908203125,17.641536712646484,6.149284362792969,-47.03508758544922,46.69865417480469,-20.998733520507812,69.10137939453125,0.3151314041637057,0.024419741987910623,-0.025730564118954448
20.523337916999964,0.3553394675254822,-0.15906715393066406,0.05847262963652611,-0.02886962890625,-0.04193115234375,-0.9215850830078125,17.562789916992188,5.059072494506836,-47.33079528808594,46.7471923828125,-22.029037475585938,68.85044860839844,0.319991028134467,0.048454899837133095,-0.031070065236587528
20.576968791999974,0.1479567140340805,0.3082289397716522,0.030652450397610664,-0.02886962890625,-0.04193115234375,-0.9215850830078125,18.07831573486328,4.472890853881836,-46.96504211425781,47.25701904296875,-22.664108276367188,69.16571044921875,0.32210757645013166,0.05913282500714141,-0.02052343553226105
20.64402549999997,0.6047993302345276,-0.01715182326734066,0.04201562702655792,-0.0039520263671875,-0.102081298828125,-0.998260498046875,17.932899475097656,3.4821815490722656,-47.110862731933594,47.021881103515625,-23.72650146484375,68.95172119140625,0.32164373043434447,0.08400438437049634,-0.023877400672286213
20.717760834000018,0.6047993302345276,-0.01715182326734066,0.04201562702655792,-0.01666259765625,-0.140167236328125,-0.9793548583984375,18.03449249267578,1.0957355499267578,-47.51356506347656,47.1492919921875,-26.08245849609375,68.4774169921875,0.3273523969963817,0.12926393660676253,-0.02827315761983516
20.766693000000004,0.2648521661758423,-0.02744121104478836,0.09900274872779846,-0.01666259765625,-0.140167236328125,-0.9793548583984375,18.128986358642578,0.33910560607910156,-47.50074005126953,47.296173095703125,-26.835662841796875,68.5504150390625,0.3331703470464342,0.14391312932722494,-0.02991140216746852
20.826460334000018,0.5699058175086975,-0.12653157114982605,0.07611900568008423,-0.031280517578125,-0.1733856201171875,-1.0032958984375,17.88796615600586,-0.7359771728515625,-47.373870849609375,46.9898681640625,-27.909957885742188,68.75831604003906,0.33831247950013654,0.1659189054619645,-0.035536146537942515
20.877246917000008,0.5699058175086975,-0.12653157114982605,0.07611900568008423,-0.031280517578125,-0.1733856201171875,-1.0032958984375,17.891033172607422,-2.4494476318359375,-47.41388702392578,47.05267333984375,-29.714202880859375,68.65023803710938,0.34470868470050053,0.19567820191352125,-0.041669045337693264
20.94362724999999,0.47899454832077026,-0.16366136074066162,-0.003026149934157729,-0.07537841796875,-0.1912078857421875,-0.9540863037109375,17.874618530273438,-3.9669952392578125,-47.33491516113281,47.01271057128906,-31.141555786132812,68.78904724121094,0.3523188557724438,0.22768977576190344,-0.04425423578741155
21.01388124999997,0.47899454832077026,-0.16366136074066162,-0.003026149934157729,-0.07537841796875,-0.1912078857421875,-0.9540863037109375,17.807445526123047,-5.951747894287109,-47.27233123779297,46.95722961425781,-33.127593994140625,68.80511474609375,0.3573547112196491,0.26681658668028513,-0.050721232701477804
21.077988166999972,0.3197700083255768,-0.0030338731594383717,0.07318393141031265,-0.0334930419921875,-0.260162353515625,-0.9577178955078125,17.830963134765625,-6.8142547607421875,-47.24993133544922,46.974090576171875,-33.962982177734375,68.83287048339844,0.36187934699679863,0.28510396000267874,-0.05285063682937265
21.127474084,0.5834290981292725,-0.11970242857933044,0.029987460002303123,-0.0665130615234375,-0.311309814453125,-0.962310791015625,17.667827606201172,-8.183998107910156,-46.98930358886719,46.73954772949219,-35.378509521484375,69.10816955566406,0.3646915520850961,0.3119807309897031,-0.056762116935959145
21.192300167000013,0.5834290981292725,-0.11970242857933044,0.029987460002303123,-0.0665130615234375,-0.311309814453125,-0.962310791015625,17.79318618774414,-9.747283935546875,-46.92235565185547,46.918121337890625,-36.98381042480469,69.15107727050781,0.3711152559585604,0.3417370385638968,-0.062091641433487194
21.243260375000006,0.5676578283309937,0.07664444297552109,0.008413990959525108,-0.070343017578125,-0.36846923828125,-0.888519287109375,17.697040557861328,-11.221576690673828,-46.55664825439453,46.799072265625,-38.429229736328125,69.6063232421875,0.37700335191441586,0.3723179148543717,-0.06551683068146283
21.312205583999997,0.5676578283309937,0.07664444297552109,0.008413990959525108,-0.070343017578125,-0.36846923828125,-0.888519287109375,18.072002410888672,-13.363960266113281,-45.97169494628906,47.18208312988281,-40.45960998535156,70.12385559082031,0.3839314999361001,0.4170395148584434,-0.060172702498251615
21.376616417000008,0.28232675790786743,-0.006774548906832933,-0.045104894787073135,-0.0677032470703125,-0.3746185302734375,-0.9071502685546875,18.333450317382812,-14.066951751708984,-45.61669158935547,47.51312255859375,-41.23793029785156,70.47209167480469,0.3844567394263897,0.4329837962358149,-0.05874035787951596
21.428611292,0.4687906503677368,-0.056605223566293716,-0.011325358413159847,-0.0543975830078125,-0.4735870361328125,-0.8955078125,18.44222640991211,-15.057849884033203,-45.213417053222656,47.60829162597656,-42.2440185546875,70.92997741699219,0.38600523061729924,0.4531009261597722,-0.05915841870738198
21.492761124999987,0.4687906503677368,-0.056605223566293716,-0.011325358413159847,-0.0543975830078125,-0.4735870361328125,-0.8955078125,18.464679718017578,-16.187252044677734,-44.78827667236328,47.618865966796875,-43.417388916015625,71.40895080566406,0.3894867010403663,0.47787608943970494,-0.06342296248084457
21.543239916999966,0.6137883067131042,-0.10179773718118668,0.0379716157913208,-0.0762481689453125,-0.5119171142578125,-0.84503173828125,18.266773223876953,-17.610942840576172,-44.54856872558594,47.39674377441406,-44.79768371582031,71.59976196289062,0.395973079033695,0.5097377435851101,-0.06877620745826792
21.615489499999995,0.6137883067131042,-0.10179773718118668,0.0379716157913208,-0.0762481689453125,-0.5119171142578125,-0.84503173828125,18.250404357910156,-20.33130645751953,-43.33373260498047,47.37467956542969,-47.48576354980469,72.85604858398438,0.4039286960096387,0.571081289959991,-0.07718963104827566
21.677246291999978,0.6084463000297546,0.09865626692771912,0.025537850335240364,-0.0599365234375,-0.523468017578125,-0.8222808837890625,18.743560791015625,-21.906169891357422,-42.82142639160156,47.92735290527344,-49.10487365722656,73.2674560546875,0.40977242532557956,0.6023854423709419,-0.07467262251855407
21.74364616699998,0.5141754150390625,0.07745058089494705,-0.06642109900712967,-0.07232666015625,-0.5609893798828125,-0.779144287109375,18.819393157958984,-23.21139144897461,-41.816200256347656,47.9609375,-50.388427734375,74.39015197753906,0.4163607055661224,0.6328323292363428,-0.07506561284436077
21.814491375000017,0.5141754150390625,0.07745058089494705,-0.06642109900712967,-0.07232666015625,-0.5609893798828125,-0.779144287109375,19.633819580078125,-25.491310119628906,-40.112403869628906,48.796966552734375,-52.648590087890625,76.04966735839844,0.420931132377585,0.6879378794556164,-0.0623000088682973
21.865908167000015,0.5196333527565002,0.03544028103351593,0.016925720497965813,-0.0415802001953125,-0.608612060546875,-0.789764404296875,20.01165008544922,-26.705474853515625,-39.410308837890625,49.22564697265625,-53.90245056152344,76.72184753417969,0.42747952475312206,0.7187303887509386,-0.06302558389902053
21.92726612499999,0.5196333527565002,0.03544028103351593,0.016925720497965813,-0.035430908203125,-0.69482421875,-0.69287109375,20.26226806640625,-28.541217803955078,-37.955810546875,49.418243408203125,-55.81681823730469,78.28865051269531,0.43261583758948363,0.7666801879923588,-0.060943887314842154
21.97767216700001,0.9385874271392822,0.10718211531639099,-0.008853412233293056,-0.035430908203125,-0.69482421875,-0.69287109375,20.734806060791016,-30.536651611328125,-36.389678955078125,49.92645263671875,-57.75196838378906,79.77658081054688,0.4416681532006988,0.8094588674125303,-0.060282662213234466
22.043002459000007,0.4403366446495056,0.10633336007595062,-0.036192625761032104,-0.0374755859375,-0.7373504638671875,-0.658935546875,20.94949722290039,-31.660388946533203,-35.37214660644531,50.11625671386719,-58.794586181640625,80.7940673828125,0.44983275082120444,0.8376589246174551,-0.05922600511263267
22.11716475,0.4403366446495056,0.10633336007595062,-0.036192625761032104,-0.0374755859375,-0.7373504638671875,-0.658935546875,21.47970962524414,-32.9794807434082,-33.87554931640625,50.63911437988281,-60.02622985839844,82.27186584472656,0.4564117116933818,0.8710753943283442,-0.05155135139608792
22.177618499999966,0.21957816183567047,-0.1247059777379036,-0.09000153094530106,-0.03692626953125,-0.76409912109375,-0.6232757568359375,21.54937744140625,-33.24418640136719,-33.79206085205078,50.69834899902344,-60.336456298828125,82.21392822265625,0.4575120991073226,0.8722402319786535,-0.05426599588293988
22.244289667000004,-0.05970168113708496,-0.20941899716854095,-0.042335737496614456,-0.03131103515625,-0.769775390625,-0.6788787841796875,21.413803100585938,-33.05939865112305,-33.91649627685547,50.52210998535156,-60.10173034667969,82.15803527832031,0.45746530511612016,0.8731356230802154,-0.0524517526393177
22.317785750000013,-0.05970168113708496,-0.20941899716854095,-0.042335737496614456,-0.03131103515625,-0.769775390625,-0.6788787841796875,21.807479858398438,-35.12537384033203,-31.642822265625,50.930267333984375,-62.39111328125,84.728271484375,0.4543387348641259,0.9452147795795103,-0.05757386222219726
22.368215875000004,0.8137562870979309,-0.38964417576789856,0.21047361195087433,0.0216064453125,-0.7698516845703125,-0.624725341796875,21.02411651611328,-36.672664642333984,-30.318016052246094,50.12040710449219,-63.88200378417969,85.84201049804688,0.4771483590041518,0.9828018823532277,-0.08528104804401043
22.426712999999978,0.8137562870979309,-0.38964417576789856,0.21047361195087433,-0.0905914306640625,-0.9028167724609375,-0.5104522705078125,21.221153259277344,-37.49616622924805,-29.350875854492188,50.407379150390625,-64.70370483398438,86.82261657714844,0.4790086311667819,1.0093234183687159,-0.07997775197636901
22.47756666699999,0.7581185698509216,0.029103290289640427,0.15938512980937958,-0.0905914306640625,-0.9028167724609375,-0.5104522705078125,21.307571411132812,-38.83869552612305,-27.538291931152344,50.474945068359375,-66.11236572265625,88.72183227539062,0.5146622363249999,1.0529280589087957,-0.10074211017894238
22.52937124999997,0.7581185698509216,0.029103290289640427,0.15938512980937958,-0.0666046142578125,-0.8969268798828125,-0.4285430908203125,20.995121002197266,-40.968692779541016,-24.844253540039062,50.08000183105469,-68.12440490722656,91.49703979492188,0.5486277652918524,1.1168796178737954,-0.1368341789719116
22.593554667000006,0.9498568773269653,-0.047445546835660934,-0.29885807633399963,-0.0666046142578125,-0.8969268798828125,-0.4285430908203125,21.696819305419922,-42.133792877197266,-22.486358642578125,50.90087890625,-69.29119873046875,93.76065063476562,0.5469067720683614,1.1641343294344624,-0.12930266960650616
22.660823083999986,1.1362837553024292,0.29335492849349976,0.40724021196365356,-0.087615966796875,-0.890838623046875,-0.3311614990234375,21.69811248779297,-43.17531967163086,-20.294891357421875,50.69499206542969,-71.60427856445312,98.13142395019531,0.6053761282892673,1.208802068137933,-0.169641812632341
22.729288208999975,1.1362837553024292,0.29335492849349976,0.40724021196365356,-0.026214599609375,-0.9370880126953125,-0.338897705078125,21.650466918945312,-45.03237533569336,-16.40196990966797,50.78166198730469,-72.14370727539062,99.85621643066406,0.7078089709230576,1.2767794250186488,-0.24877027135651447
22.794226167000005,0.2946723699569702,0.028478778898715973,-0.0943203791975975,-0.026214599609375,-0.9370880126953125,-0.338897705078125,22.013545989990234,-45.21834945678711,-15.870399475097656,51.21003723144531,-72.30850219726562,100.26878356933594,0.7013223534037786,1.2937364010604742,-0.2392526350884562
22.860996459000006,-0.17053978145122528,-0.1604274958372116,-0.2511270344257355,-0.0759429931640625,-1.021026611328125,-0.3253326416015625,23.082008361816406,-44.97568893432617,-15.118324279785156,52.986907958984375,-71.809814453125,100.36189270019531,0.6341829002621217,1.2991684630308133,-0.16281797326075437
22.91069462499999,-0.17053978145122528,-0.1604274958372116,-0.2511270344257355,-0.0759429931640625,-1.021026611328125,-0.3253326416015625,23.762847900390625,-44.65848922729492,-15.717514038085938,53.17488098144531,-71.59288024902344,100.09628295898438,0.5926869344140806,1.2932165216352025,-0.1276746599140465
22.97750875,0.057432398200035095,0.027061445638537407,-0.2609884440898895,-0.0411224365234375,-0.9521484375,-0.29217529296875,24.687450408935547,-44.1071662902832,-15.879768371582031,53.889678955078125,-71.16752624511719,100.18505859375,0.5338461097187801,1.2894677615752326,-0.059025098043711755
23.02657395899999,0.057432398200035095,0.027061445638537407,-0.2609884440898895,-0.000640869140625,-0.98248291015625,-0.2346649169921875,25.032081604003906,-44.33454513549805,-15.095481872558594,54.16145324707031,-71.48313903808594,101.18092346191406,0.513437763060886,1.3172688527077236,-0.03393231325152112
23.077503500000006,1.1048622131347656,0.08737511932849884,-0.20446152985095978,-0.000640869140625,-0.98248291015625,-0.2346649169921875,25.71087646484375,-44.78706741333008,-12.790260314941406,54.95909118652344,-72.00352478027344,103.49415588378906,0.4809320163300577,1.3596902091372092,0.0012849943996151825
23.144522249999994,0.7038471102714539,-0.10642790794372559,-0.5025576949119568,0.0044403076171875,-0.976593017578125,-0.209869384765625,26.568763732910156,-44.373531341552734,-11.924415588378906,55.267486572265625,-71.47624206542969,103.76930236816406,0.4124092328107978,1.3656359364424553,0.07465039163774903
